
#1
liczenie
obiektów (w)	udział punktów	pole obrazu(mm²)
	50	100.00	12288.0000
nr.	x(pix.):	y(pix.):	x(mm):	y(mm):	powierzchnia:(mm²)	długość:(mm)	szerokość:(mm)	kąt:(°)	obwód:(mm)	obwód C.:(mm)	średnica Fereta H(mm)	średnica Fereta V(mm)	średn. Martina:(mm)	średn. sitowa:(mm)	średnia jaskrawość	R	G	B	Y
1	292.00000000	699.00000000	29.20000000	69.90000000	0.92000000	1.30000000	0.80000000	69.24000000	4.08700571	6.69118043	1.20000000	1.10000000	1.30000000	1.07935823	128.00000000	97.50000000	139.80000000	147.20000000	128.00000000
2	572.00000000	615.50000000	57.20000000	61.60000000	1.31000000	1.40000000	1.30000000	115.36000000	4.26274164	8.48520930	1.30000000	1.30000000	1.40000000	1.29148899	139.70000000	105.90000000	152.50000000	162.40000000	139.70000000
3	971.00000000	137.50000000	97.10000000	13.80000000	0.65000000	1.10000000	0.70000000	61.01000000	3.15563488	5.72489813	0.90000000	0.90000000	1.10000000	0.90622266	120.60000000	88.90000000	132.70000000	141.10000000	120.60000000
4	867.50000000	241.50000000	86.80000000	24.20000000	0.28000000	0.70000000	0.60000000	81.50000000	2.07279218	4.09011421	0.60000000	0.60000000	0.70000000	0.59172703	143.10000000	112.40000000	155.30000000	160.90000000	143.10000000
5	833.50000000	535.50000000	83.40000000	53.60000000	0.97000000	1.40000000	1.10000000	21.72000000	4.06274165	7.88228151	1.20000000	1.20000000	1.40000000	1.11132460	130.60000000	98.40000000	143.30000000	149.40000000	130.60000000
6	491.50000000	586.50000000	49.20000000	58.70000000	0.29000000	0.70000000	0.50000000	65.62000000	2.07279217	3.79613689	0.70000000	0.50000000	0.70000000	0.60238963	145.20000000	114.10000000	157.10000000	165.90000000	145.20000000
7	404.00000000	39.00000000	40.40000000	3.90000000	1.50000000	1.50000000	1.30000000	126.01000000	4.82842705	8.80768299	1.50000000	1.30000000	1.50000000	1.38197660	163.60000000	129.30000000	175.70000000	191.40000000	163.60000000
8	844.50000000	293.50000000	84.50000000	29.40000000	1.28000000	1.60000000	1.20000000	47.83000000	4.60416299	8.84139686	1.30000000	1.30000000	1.60000000	1.27411947	131.50000000	98.70000000	144.60000000	150.20000000	131.50000000
9	269.00000000	789.00000000	26.90000000	78.90000000	0.85000000	1.20000000	0.90000000	166.76000000	3.86274164	6.63104765	1.10000000	1.10000000	1.20000000	1.04031419	124.00000000	91.10000000	136.40000000	147.00000000	124.00000000
10	169.00000000	680.50000000	16.90000000	68.00000000	0.88000000	1.00000000	1.10000000	38.41000000	3.60416299	6.60108509	1.10000000	1.00000000	1.00000000	1.05550206	119.00000000	90.20000000	130.20000000	137.10000000	119.00000000
11	1245.00000000	652.00000000	124.50000000	65.20000000	0.31000000	0.80000000	0.50000000	82.63000000	2.21421353	4.13862761	0.70000000	0.60000000	0.80000000	0.62825493	138.70000000	104.80000000	152.10000000	157.70000000	138.60000000
12	289.50000000	582.50000000	29.00000000	58.20000000	0.39000000	0.80000000	0.70000000	54.90000000	2.33137082	4.71762642	0.70000000	0.70000000	0.80000000	0.70467256	160.50000000	124.60000000	173.90000000	185.90000000	160.50000000
13	378.00000000	577.00000000	37.80000000	57.70000000	1.13000000	1.30000000	0.80000000	153.45000000	3.97989893	6.69118043	1.30000000	1.10000000	1.30000000	1.19948351	114.00000000	86.00000000	125.20000000	129.70000000	114.00000000
14	1147.50000000	129.50000000	114.80000000	13.00000000	1.21000000	1.50000000	1.10000000	128.58000000	4.65269113	8.21654502	1.40000000	1.10000000	1.50000000	1.23864993	104.50000000	76.50000000	114.60000000	125.90000000	104.50000000
15	828.50000000	776.00000000	82.90000000	77.60000000	0.34000000	0.90000000	0.50000000	83.50000000	2.35563487	4.48845712	0.80000000	0.60000000	0.90000000	0.65309666	138.90000000	108.40000000	152.50000000	149.20000000	139.00000000
16	957.50000000	486.00000000	95.80000000	48.60000000	1.35000000	1.70000000	0.90000000	92.21000000	4.86274166	8.36264176	1.70000000	1.10000000	1.70000000	1.31105812	130.10000000	98.20000000	142.60000000	149.60000000	130.10000000
17	887.50000000	438.00000000	88.80000000	43.80000000	0.65000000	1.30000000	0.60000000	59.96000000	3.32132030	6.17335602	1.30000000	0.70000000	1.30000000	0.90622266	155.60000000	120.70000000	169.50000000	175.40000000	155.60000000
18	321.00000000	334.00000000	32.10000000	33.40000000	1.51000000	1.70000000	0.90000000	165.95000000	4.77989893	8.36264176	1.70000000	1.10000000	1.70000000	1.38657553	139.70000000	104.20000000	152.50000000	166.90000000	139.70000000
19	508.00000000	259.50000000	50.80000000	26.00000000	0.31000000	0.60000000	0.70000000	143.59000000	2.21421355	4.09011421	0.70000000	0.60000000	0.60000000	0.62825493	115.60000000	89.40000000	124.10000000	141.10000000	115.70000000
20	1249.50000000	607.00000000	125.00000000	60.70000000	1.07000000	1.40000000	0.90000000	45.39000000	4.03847759	7.31128766	1.30000000	1.10000000	1.40000000	1.16447418	133.10000000	96.60000000	147.20000000	156.20000000	133.10000000
21	623.00000000	664.00000000	62.30000000	66.40000000	1.41000000	1.70000000	1.20000000	54.82000000	4.60416299	9.17845217	1.60000000	1.20000000	1.70000000	1.33749825	143.70000000	108.20000000	157.30000000	167.60000000	143.80000000
22	1229.50000000	426.50000000	123.00000000	42.70000000	0.82000000	1.40000000	0.40000000	27.28000000	3.57989897	6.10035750	1.30000000	0.80000000	1.40000000	1.02179079	129.10000000	96.40000000	141.90000000	148.50000000	129.10000000
23	1263.50000000	445.00000000	126.40000000	44.50000000	1.97000000	1.90000000	0.90000000	118.48000000	5.39411256	9.07926999	1.80000000	1.30000000	1.90000000	1.58375563	122.00000000	88.70000000	134.10000000	147.30000000	122.00000000
24	1193.50000000	119.00000000	119.40000000	11.90000000	1.89000000	1.90000000	1.40000000	97.34000000	6.25269113	10.42684148	1.90000000	1.40000000	1.90000000	1.54921159	121.60000000	88.10000000	133.30000000	149.60000000	121.60000000
25	458.50000000	522.00000000	45.90000000	52.20000000	1.07000000	1.10000000	1.00000000	85.77000000	3.87279217	6.60108509	1.10000000	1.10000000	1.10000000	1.16447418	114.40000000	87.50000000	125.70000000	126.20000000	114.30000000
26	9.50000000	595.00000000	1.00000000	59.50000000	1.10000000	1.60000000	0.70000000	165.95000000	4.21421353	7.50501473	1.50000000	0.90000000	1.60000000	1.18345405	144.90000000	107.40000000	157.50000000	178.20000000	144.90000000
27	173.00000000	534.00000000	17.30000000	53.40000000	2.48000000	2.40000000	1.30000000	120.21000000	6.67695518	11.88219057	2.50000000	1.30000000	2.40000000	1.77697329	165.10000000	128.40000000	178.00000000	195.30000000	165.10000000
28	797.50000000	235.50000000	79.80000000	23.60000000	0.45000000	1.00000000	0.60000000	70.74000000	3.34558437	5.10539977	0.90000000	0.70000000	1.00000000	0.75693976	112.00000000	88.00000000	122.80000000	119.80000000	112.00000000
29	832.00000000	889.00000000	83.20000000	88.90000000	2.20000000	2.60000000	1.20000000	58.72000000	6.64264060	12.34671204	2.60000000	1.20000000	2.60000000	1.67365677	134.90000000	98.50000000	147.80000000	163.70000000	134.90000000
30	897.50000000	666.50000000	89.80000000	66.70000000	1.39000000	1.70000000	1.20000000	51.39000000	4.74558437	9.17845217	1.50000000	1.30000000	1.70000000	1.33033942	120.80000000	89.90000000	133.10000000	137.90000000	120.70000000
31	1026.50000000	837.50000000	102.70000000	83.80000000	0.29000000	0.80000000	0.50000000	82.64000000	2.04852812	4.13862761	0.70000000	0.50000000	0.80000000	0.60765078	81.50000000	62.30000000	86.80000000	104.50000000	81.50000000
32	119.50000000	187.50000000	12.00000000	18.80000000	7.70000000	8.50000000	1.00000000	140.28000000	19.24924222	34.71484676	8.50000000	1.20000000	8.50000000	3.13010835	133.70000000	100.30000000	145.40000000	161.50000000	133.80000000
33	1037.50000000	109.00000000	103.80000000	10.90000000	0.23000000	0.50000000	0.50000000	0.00000000	1.76568542	3.14159265	0.50000000	0.50000000	0.50000000	0.54115164	102.50000000	80.20000000	112.40000000	110.20000000	102.50000000
34	188.50000000	106.50000000	18.90000000	10.70000000	8.44000000	9.60000000	1.10000000	140.19000000	21.46345571	39.17233350	9.50000000	1.10000000	9.60000000	3.27715968	131.70000000	98.90000000	143.20000000	158.70000000	131.70000000
35	586.50000000	265.00000000	58.70000000	26.50000000	1.86000000	1.80000000	1.20000000	168.49000000	5.17989894	9.51926375	1.70000000	1.30000000	1.80000000	1.53890401	148.20000000	111.40000000	162.10000000	173.60000000	148.20000000
36	856.00000000	753.50000000	85.60000000	75.40000000	0.26000000	0.70000000	0.60000000	130.74000000	1.90710677	4.09011421	0.60000000	0.50000000	0.70000000	0.56980355	90.00000000	69.20000000	96.70000000	110.00000000	90.00000000
37	1195.00000000	292.50000000	119.50000000	29.20000000	1.37000000	1.60000000	1.10000000	142.33000000	4.93553381	8.55517944	1.60000000	1.10000000	1.60000000	1.31832165	112.40000000	82.60000000	123.30000000	134.30000000	112.40000000
38	324.50000000	616.50000000	32.50000000	61.70000000	0.77000000	1.20000000	1.00000000	140.40000000	3.47279218	6.92579120	1.00000000	1.00000000	1.20000000	0.98692870	148.90000000	115.20000000	161.00000000	175.30000000	148.90000000
39	464.00000000	36.50000000	46.40000000	3.70000000	0.29000000	0.70000000	0.70000000	161.92000000	2.07279218	4.39822972	0.60000000	0.60000000	0.70000000	0.60238963	93.30000000	73.90000000	102.10000000	99.30000000	93.30000000
40	88.00000000	954.00000000	8.80000000	95.40000000	0.20000000	0.70000000	0.60000000	45.00000000	1.98994946	4.09011421	0.80000000	0.40000000	0.70000000	0.49827875	109.30000000	82.70000000	117.20000000	138.50000000	109.30000000
41	6.00000000	753.00000000	0.60000000	75.30000000	0.36000000	0.00000000	0.00000000	0.00000000	3.33137082	3.33137082	1.50000000	0.40000000	0.00000000	0.67702750	75.40000000	55.70000000	79.80000000	104.50000000	75.40000000
42	1078.00000000	388.50000000	107.80000000	38.90000000	1.38000000	1.50000000	1.40000000	72.18000000	4.91126976	9.11332717	1.40000000	1.30000000	1.50000000	1.32554539	85.80000000	62.60000000	94.40000000	101.70000000	85.70000000
43	979.50000000	336.50000000	98.00000000	33.60000000	3.76000000	3.70000000	1.40000000	73.55000000	9.07695521	16.84770902	3.70000000	1.40000000	3.70000000	2.18800838	139.80000000	102.50000000	153.30000000	168.30000000	139.80000000
44	49.00000000	277.50000000	4.90000000	27.80000000	6.21000000	6.50000000	1.10000000	145.99000000	15.26518018	26.99978413	6.50000000	1.20000000	6.50000000	2.81190639	146.80000000	111.30000000	158.70000000	179.00000000	146.80000000
45	1090.50000000	558.00000000	109.10000000	55.80000000	0.48000000	0.90000000	0.70000000	14.28000000	2.78994948	5.04620245	0.80000000	0.80000000	0.90000000	0.77768167	132.80000000	98.10000000	147.10000000	150.50000000	132.80000000
46	1100.00000000	570.00000000	110.00000000	57.00000000	1.00000000	1.50000000	1.00000000	34.96000000	4.20416300	7.93271979	1.40000000	1.00000000	1.50000000	1.12555468	127.50000000	93.30000000	141.30000000	145.90000000	127.50000000
47	313.50000000	610.00000000	31.40000000	61.00000000	0.89000000	1.20000000	0.80000000	167.66000000	3.63847760	6.34617584	1.10000000	1.10000000	1.20000000	1.06151637	138.80000000	107.30000000	150.00000000	164.10000000	138.90000000
48	438.00000000	818.50000000	43.80000000	81.90000000	0.26000000	0.60000000	0.50000000	159.84000000	2.01421354	3.46289560	0.60000000	0.50000000	0.60000000	0.57536274	80.10000000	65.60000000	85.90000000	88.10000000	80.10000000
49	315.50000000	5.50000000	31.60000000	0.60000000	0.64000000	1.90000000	0.20000000	87.50000000	4.97989895	7.73248160	1.90000000	0.50000000	1.90000000	0.90270333	49.80000000	40.30000000	52.10000000	63.20000000	49.80000000
50	1255.50000000	798.00000000	125.60000000	79.80000000	0.21000000	0.50000000	0.60000000	135.00000000	1.81421351	3.46289560	0.60000000	0.40000000	0.50000000	0.51708829	68.30000000	53.20000000	74.70000000	74.70000000	68.30000000

#2
liczenie
obiektów (w)	udział punktów	pole obrazu(mm²)
	38	100.00	12288.0000
nr.	x(pix.):	y(pix.):	x(mm):	y(mm):	powierzchnia:(mm²)	długość:(mm)	szerokość:(mm)	kąt:(°)	obwód:(mm)	obwód C.:(mm)	średnica Fereta H(mm)	średnica Fereta V(mm)	średn. Martina:(mm)	średn. sitowa:(mm)	średnia jaskrawość	R	G	B	Y
1	828.50000000	318.00000000	82.90000000	31.80000000	0.91000000	1.10000000	1.10000000	141.80000000	3.72132032	6.91150384	1.10000000	1.10000000	1.10000000	1.07344389	101.50000000	69.80000000	109.70000000	142.60000000	101.50000000
2	611.00000000	241.50000000	61.10000000	24.20000000	1.18000000	1.20000000	0.50000000	133.72000000	4.08700572	5.56959491	1.30000000	1.10000000	1.20000000	1.22313387	130.30000000	91.80000000	143.00000000	166.20000000	130.30000000
3	160.50000000	669.00000000	16.10000000	66.90000000	0.69000000	1.20000000	0.50000000	33.11000000	3.23847760	5.56959491	1.10000000	0.80000000	1.20000000	0.93389993	122.80000000	86.00000000	135.00000000	156.30000000	122.80000000
4	436.50000000	107.50000000	43.70000000	10.80000000	0.86000000	1.30000000	0.80000000	9.62000000	3.72132031	6.69118043	1.20000000	0.90000000	1.30000000	1.04336945	117.30000000	82.30000000	129.00000000	148.80000000	117.30000000
5	612.00000000	543.50000000	61.20000000	54.40000000	1.56000000	1.80000000	1.20000000	3.96000000	5.25269113	9.51926375	1.60000000	1.40000000	1.80000000	1.40708475	112.00000000	76.40000000	121.10000000	158.50000000	112.00000000
6	296.50000000	576.00000000	29.70000000	57.60000000	0.54000000	1.00000000	0.70000000	61.79000000	2.87279218	5.38236898	1.00000000	0.70000000	1.00000000	0.82533821	85.00000000	60.20000000	91.10000000	119.20000000	85.10000000
7	69.50000000	588.50000000	7.00000000	58.90000000	0.59000000	1.10000000	0.60000000	95.73000000	2.95563487	5.45684568	1.10000000	0.70000000	1.10000000	0.86304411	142.40000000	107.70000000	155.60000000	165.90000000	142.50000000
8	198.50000000	285.00000000	19.90000000	28.50000000	2.46000000	2.50000000	1.10000000	178.66000000	6.82842706	11.74154356	2.50000000	1.10000000	2.50000000	1.76979357	169.80000000	131.80000000	183.80000000	197.90000000	169.80000000
9	50.50000000	552.00000000	5.10000000	55.20000000	0.81000000	1.20000000	0.50000000	126.62000000	3.46274164	5.56959491	1.10000000	0.80000000	1.20000000	1.01554125	133.60000000	100.20000000	145.50000000	159.70000000	133.60000000
10	761.50000000	458.00000000	76.20000000	45.80000000	0.61000000	1.10000000	0.80000000	36.31000000	2.95563489	6.00628745	1.10000000	0.70000000	1.10000000	0.87767302	138.20000000	97.10000000	152.10000000	175.20000000	138.30000000
11	525.50000000	693.00000000	52.60000000	69.30000000	1.30000000	1.60000000	0.70000000	168.92000000	4.52132030	7.50501473	1.50000000	1.10000000	1.60000000	1.28407368	94.20000000	73.50000000	100.60000000	115.20000000	94.20000000
12	17.00000000	37.50000000	1.70000000	3.80000000	0.89000000	1.00000000	1.00000000	136.99000000	3.57989897	6.28318531	1.10000000	1.00000000	1.00000000	1.06451078	116.80000000	84.40000000	126.70000000	150.50000000	116.80000000
13	930.00000000	489.50000000	93.00000000	49.00000000	1.24000000	1.40000000	0.90000000	168.64000000	4.29705623	7.31128766	1.30000000	1.10000000	1.40000000	1.25650986	90.30000000	63.10000000	97.60000000	124.10000000	90.30000000
14	727.50000000	715.00000000	72.80000000	71.50000000	0.87000000	1.30000000	1.00000000	10.10000000	3.74558438	7.25642889	1.20000000	0.90000000	1.30000000	1.05248202	127.50000000	88.90000000	139.40000000	167.60000000	127.50000000
15	818.00000000	777.00000000	81.80000000	77.70000000	1.57000000	1.50000000	1.40000000	154.74000000	4.66274163	9.11332717	1.50000000	1.30000000	1.50000000	1.41385504	140.90000000	100.80000000	154.60000000	175.80000000	140.90000000
16	681.00000000	775.50000000	68.10000000	77.60000000	1.33000000	1.70000000	1.00000000	132.39000000	4.80416300	8.62544451	1.70000000	1.10000000	1.70000000	1.29886196	121.80000000	84.90000000	132.30000000	164.60000000	121.80000000
17	352.50000000	504.00000000	35.20000000	50.40000000	0.94000000	1.40000000	0.80000000	42.05000000	3.92132031	7.04063244	1.30000000	0.90000000	1.40000000	1.09109073	138.60000000	98.00000000	152.00000000	176.20000000	138.60000000
18	554.00000000	512.00000000	55.40000000	51.20000000	0.83000000	1.20000000	0.70000000	50.10000000	3.60416301	6.07282316	1.20000000	0.80000000	1.20000000	1.02490128	152.30000000	113.10000000	166.60000000	182.20000000	152.40000000
19	379.50000000	671.50000000	38.00000000	67.20000000	0.56000000	1.00000000	0.70000000	88.61000000	3.01421354	5.38236898	1.00000000	0.70000000	1.00000000	0.84440165	70.50000000	49.40000000	75.10000000	102.30000000	70.50000000
20	250.00000000	744.00000000	25.00000000	74.40000000	0.65000000	1.20000000	0.70000000	88.98000000	3.15563488	6.07282316	1.20000000	0.70000000	1.20000000	0.90622266	145.00000000	105.50000000	158.90000000	177.10000000	145.00000000
21	724.00000000	458.50000000	72.40000000	45.90000000	1.55000000	2.00000000	1.10000000	29.93000000	5.08700571	9.94525880	1.90000000	1.10000000	2.00000000	1.40255306	156.10000000	113.10000000	170.70000000	193.40000000	156.10000000
22	261.50000000	620.00000000	26.20000000	62.00000000	0.49000000	1.00000000	0.70000000	29.75000000	2.75563489	5.38236898	0.90000000	0.70000000	1.00000000	0.78582516	98.00000000	72.40000000	105.50000000	126.90000000	98.10000000
23	700.50000000	630.00000000	70.00000000	63.00000000	1.33000000	1.50000000	1.30000000	145.83000000	4.37989895	8.80768299	1.30000000	1.30000000	1.50000000	1.30131034	160.00000000	119.80000000	174.50000000	190.80000000	160.00000000
24	874.50000000	313.50000000	87.50000000	31.40000000	1.25000000	1.50000000	1.20000000	44.20000000	4.46274165	8.50850037	1.30000000	1.30000000	1.50000000	1.26156626	95.00000000	64.20000000	102.90000000	135.50000000	95.10000000
25	1049.00000000	310.50000000	104.90000000	31.10000000	1.45000000	1.50000000	1.20000000	139.93000000	4.91126977	8.50850037	1.40000000	1.40000000	1.50000000	1.35874845	77.10000000	52.80000000	83.00000000	110.10000000	77.10000000
26	1020.50000000	67.50000000	102.10000000	6.80000000	1.29000000	1.50000000	1.30000000	135.16000000	4.76984841	8.80768299	1.50000000	1.30000000	1.50000000	1.27910626	72.10000000	49.00000000	77.30000000	105.30000000	72.10000000
27	1221.50000000	152.50000000	122.20000000	15.20000000	2.46000000	2.10000000	1.30000000	102.99000000	6.25269114	10.82977347	2.10000000	1.50000000	2.10000000	1.76799408	98.30000000	62.60000000	106.60000000	149.20000000	98.30000000
28	1260.50000000	255.00000000	126.10000000	25.50000000	3.04000000	2.30000000	1.60000000	7.05000000	6.59411249	12.35108989	2.30000000	1.70000000	2.30000000	1.96739630	86.70000000	57.50000000	93.40000000	128.70000000	86.70000000
29	239.50000000	900.00000000	24.00000000	90.00000000	1.76000000	2.10000000	0.80000000	100.62000000	5.32132030	9.57437856	2.00000000	1.10000000	2.10000000	1.49483625	172.20000000	134.10000000	186.20000000	200.40000000	172.20000000
30	85.50000000	213.50000000	8.60000000	21.40000000	2.06000000	2.20000000	1.10000000	160.20000000	5.88700571	10.65729304	2.20000000	1.20000000	2.20000000	1.61756214	179.60000000	144.20000000	192.60000000	204.90000000	179.60000000
31	374.00000000	386.50000000	37.40000000	38.70000000	0.50000000	1.00000000	0.40000000	62.39000000	2.67279217	4.60262249	0.90000000	0.70000000	1.00000000	0.79388511	69.10000000	50.10000000	74.30000000	92.00000000	69.10000000
32	654.50000000	485.50000000	65.50000000	48.60000000	0.32000000	0.60000000	0.70000000	128.59000000	2.15563487	4.09011421	0.60000000	0.60000000	0.60000000	0.63330124	75.00000000	53.40000000	79.80000000	107.70000000	75.10000000
33	513.50000000	428.50000000	51.40000000	42.90000000	2.70000000	2.50000000	1.10000000	81.95000000	7.07695516	11.74154356	2.60000000	1.40000000	2.50000000	1.85411617	152.50000000	112.40000000	166.10000000	187.50000000	152.50000000
34	332.50000000	403.00000000	33.20000000	40.30000000	0.44000000	1.00000000	0.60000000	55.80000000	2.69705623	5.10539977	0.90000000	0.60000000	1.00000000	0.74848206	63.90000000	48.90000000	67.60000000	83.80000000	63.80000000
35	1190.00000000	333.50000000	119.00000000	33.40000000	14.69000000	10.50000000	1.70000000	2.33000000	25.16223640	43.50173830	10.50000000	2.00000000	10.50000000	4.32479929	75.20000000	51.10000000	81.40000000	106.70000000	75.20000000
36	134.00000000	136.50000000	13.40000000	13.70000000	0.43000000	0.90000000	0.40000000	62.39000000	2.69705625	4.23655985	0.80000000	0.60000000	0.90000000	0.73992770	53.40000000	40.70000000	57.40000000	66.60000000	53.40000000
37	696.50000000	215.00000000	69.70000000	21.50000000	2.81000000	2.80000000	1.50000000	124.15000000	8.38406191	13.81933330	2.90000000	1.60000000	2.80000000	1.88982457	134.50000000	94.10000000	147.70000000	173.00000000	134.50000000
38	137.00000000	882.50000000	13.70000000	88.20000000	0.44000000	1.00000000	0.60000000	75.95000000	2.83847759	5.10539977	0.80000000	0.70000000	1.00000000	0.74421717	54.80000000	41.70000000	58.80000000	69.60000000	54.90000000

#3
liczenie
obiektów (w)	udział punktów	pole obrazu(mm²)
	42	100.00	12288.0000
nr.	x(pix.):	y(pix.):	x(mm):	y(mm):	powierzchnia:(mm²)	długość:(mm)	szerokość:(mm)	kąt:(°)	obwód:(mm)	obwód C.:(mm)	średnica Fereta H(mm)	średnica Fereta V(mm)	średn. Martina:(mm)	średn. sitowa:(mm)	średnia jaskrawość	R	G	B	Y
1	729.00000000	549.00000000	72.90000000	54.90000000	0.49000000	1.00000000	0.70000000	20.57000000	2.61421350	5.38236898	0.80000000	0.70000000	1.00000000	0.78986542	134.50000000	97.10000000	146.80000000	169.10000000	134.50000000
2	1122.50000000	552.00000000	112.20000000	55.20000000	0.74000000	1.20000000	0.20000000	127.11000000	3.37989893	4.98000613	1.10000000	0.80000000	1.20000000	0.97066846	114.10000000	80.20000000	124.60000000	149.50000000	114.20000000
3	496.50000000	778.50000000	49.70000000	77.90000000	0.74000000	1.20000000	0.10000000	161.52000000	3.37989894	4.85621764	1.00000000	1.00000000	1.20000000	0.97066846	120.30000000	86.20000000	130.90000000	154.90000000	120.30000000
4	308.50000000	398.50000000	30.90000000	39.90000000	0.92000000	1.10000000	1.10000000	85.19000000	3.69705625	6.91150384	1.10000000	1.10000000	1.10000000	1.08230328	129.20000000	91.10000000	141.40000000	166.80000000	129.20000000
5	947.00000000	333.50000000	94.70000000	33.40000000	1.12000000	1.40000000	1.00000000	157.15000000	4.03847759	7.59227379	1.30000000	1.10000000	1.40000000	1.19149574	159.60000000	117.40000000	174.70000000	192.50000000	159.60000000
6	773.00000000	135.00000000	77.30000000	13.50000000	0.77000000	1.20000000	0.70000000	86.56000000	3.41421354	6.07282316	1.10000000	0.90000000	1.20000000	0.99014870	121.30000000	86.60000000	132.50000000	155.00000000	121.30000000
7	207.00000000	552.00000000	20.70000000	55.20000000	0.83000000	1.30000000	1.00000000	118.76000000	3.55563488	7.25642889	1.10000000	1.00000000	1.30000000	1.02490128	118.30000000	84.50000000	128.70000000	153.50000000	118.30000000
8	73.50000000	316.00000000	7.40000000	31.60000000	0.65000000	1.00000000	0.80000000	37.38000000	3.01421351	5.67233358	0.90000000	0.90000000	1.00000000	0.90972837	156.00000000	119.20000000	170.30000000	178.60000000	156.00000000
9	847.00000000	591.00000000	84.70000000	59.10000000	0.46000000	0.80000000	0.40000000	58.98000000	2.58994948	3.87537929	0.80000000	0.70000000	0.80000000	0.76113336	137.70000000	100.00000000	150.60000000	170.00000000	137.70000000
10	925.00000000	180.50000000	92.50000000	18.10000000	0.57000000	1.00000000	0.60000000	10.29000000	2.87279217	5.10539977	1.00000000	0.70000000	1.00000000	0.84816292	162.00000000	122.70000000	177.30000000	186.30000000	162.00000000
11	272.50000000	777.00000000	27.20000000	77.70000000	1.41000000	2.00000000	0.90000000	76.60000000	5.22842708	9.44137847	2.00000000	1.00000000	2.00000000	1.33987602	132.90000000	92.70000000	145.40000000	173.80000000	132.90000000
12	908.50000000	454.50000000	90.90000000	45.50000000	0.69000000	1.30000000	0.80000000	31.19000000	3.29705626	6.69118043	1.20000000	0.80000000	1.30000000	0.93730213	140.60000000	100.30000000	154.60000000	173.80000000	140.60000000
13	1020.00000000	439.00000000	102.00000000	43.90000000	1.06000000	1.50000000	0.80000000	136.38000000	4.26274166	7.39397902	1.50000000	0.90000000	1.50000000	1.16173746	128.10000000	89.60000000	140.30000000	166.70000000	128.10000000
14	329.50000000	118.00000000	33.00000000	11.80000000	1.24000000	1.60000000	0.90000000	109.70000000	4.54558436	8.00868922	1.60000000	1.10000000	1.60000000	1.25650986	148.30000000	109.00000000	161.70000000	182.30000000	148.30000000
15	652.50000000	99.50000000	65.20000000	10.00000000	0.73000000	1.10000000	0.80000000	105.01000000	3.29705622	6.00628745	1.00000000	0.90000000	1.10000000	0.96408758	143.60000000	106.70000000	157.10000000	170.80000000	143.60000000
16	1166.00000000	89.00000000	116.60000000	8.90000000	0.63000000	1.00000000	0.70000000	39.50000000	3.01421353	5.38236898	0.90000000	0.90000000	1.00000000	0.89562320	130.30000000	92.40000000	143.60000000	161.50000000	130.30000000
17	1055.00000000	327.00000000	105.50000000	32.70000000	0.39000000	0.80000000	0.50000000	40.24000000	2.41421354	4.13862761	0.80000000	0.60000000	0.80000000	0.70467256	104.40000000	75.10000000	114.10000000	131.70000000	104.40000000
18	257.50000000	343.50000000	25.80000000	34.40000000	0.53000000	1.00000000	0.30000000	61.07000000	2.89705626	4.38590974	1.00000000	0.70000000	1.00000000	0.82147243	111.60000000	79.30000000	121.60000000	144.60000000	111.60000000
19	460.00000000	854.00000000	46.00000000	85.40000000	0.59000000	1.10000000	0.60000000	78.75000000	3.01421353	5.45684568	1.10000000	0.70000000	1.10000000	0.86672448	114.20000000	80.50000000	124.40000000	150.50000000	114.20000000
20	941.00000000	101.00000000	94.10000000	10.10000000	0.86000000	1.20000000	0.90000000	144.92000000	3.68700569	6.63104765	1.10000000	0.90000000	1.20000000	1.04336945	120.30000000	83.30000000	132.50000000	155.10000000	120.30000000
21	340.50000000	830.50000000	34.10000000	83.10000000	0.51000000	0.80000000	0.80000000	135.19000000	2.77989897	5.02654825	0.80000000	0.80000000	0.80000000	0.80582391	111.60000000	78.40000000	121.50000000	147.80000000	111.60000000
22	1228.50000000	178.00000000	122.90000000	17.80000000	0.79000000	1.30000000	0.80000000	44.72000000	3.60416298	6.69118043	1.30000000	0.80000000	1.30000000	0.99974649	119.50000000	84.00000000	131.00000000	153.20000000	119.50000000
23	437.00000000	161.00000000	43.70000000	16.10000000	0.42000000	0.80000000	0.80000000	51.40000000	2.53137083	5.02654825	0.80000000	0.70000000	0.80000000	0.73127328	114.10000000	82.20000000	124.70000000	142.90000000	114.10000000
24	1019.50000000	338.50000000	102.00000000	33.90000000	1.50000000	2.00000000	1.00000000	46.95000000	4.94558436	9.68844822	2.00000000	1.00000000	2.00000000	1.38197660	172.70000000	129.50000000	188.10000000	206.60000000	172.70000000
25	845.00000000	226.50000000	84.50000000	22.70000000	1.09000000	1.70000000	0.90000000	145.34000000	4.32132031	8.36264176	1.70000000	0.90000000	1.70000000	1.17535735	138.90000000	98.80000000	152.10000000	175.90000000	138.90000000
26	608.00000000	825.50000000	60.80000000	82.60000000	0.66000000	1.00000000	0.90000000	33.97000000	3.07279218	5.97316043	0.90000000	0.90000000	1.00000000	0.91322062	156.60000000	119.60000000	169.90000000	185.00000000	156.60000000
27	716.50000000	561.50000000	71.70000000	56.20000000	0.51000000	1.10000000	0.20000000	28.85000000	2.73137082	4.59027948	0.90000000	0.70000000	1.10000000	0.80582391	120.10000000	82.80000000	131.40000000	160.20000000	120.10000000
28	173.00000000	915.00000000	17.30000000	91.50000000	0.95000000	1.50000000	0.80000000	59.53000000	4.03847760	7.39397902	1.50000000	0.80000000	1.50000000	1.09690992	136.50000000	97.70000000	149.10000000	173.70000000	136.50000000
29	636.50000000	788.00000000	63.70000000	78.80000000	0.44000000	0.80000000	0.80000000	21.18000000	2.55563488	5.02654825	0.80000000	0.70000000	0.80000000	0.74421717	114.80000000	78.50000000	125.20000000	155.90000000	114.80000000
30	879.50000000	193.50000000	88.00000000	19.40000000	0.68000000	1.10000000	0.90000000	41.16000000	3.13137083	6.29890311	0.90000000	0.90000000	1.10000000	0.93048530	162.90000000	125.80000000	176.40000000	190.80000000	162.90000000
31	571.50000000	917.50000000	57.20000000	91.80000000	0.46000000	0.80000000	0.40000000	51.47000000	2.53137082	3.87537929	0.80000000	0.70000000	0.80000000	0.76530399	103.90000000	71.70000000	112.40000000	144.30000000	103.90000000
32	496.50000000	625.50000000	49.70000000	62.60000000	2.19000000	2.80000000	0.80000000	67.06000000	6.87695519	12.20071499	2.80000000	1.10000000	2.80000000	1.66984868	157.30000000	115.10000000	171.10000000	196.80000000	157.30000000
33	281.50000000	197.00000000	28.20000000	19.70000000	1.24000000	1.80000000	0.80000000	32.76000000	4.88700567	8.47311969	1.80000000	1.00000000	1.80000000	1.25397402	151.30000000	111.00000000	165.50000000	184.20000000	151.40000000
34	230.00000000	336.50000000	23.00000000	33.60000000	0.46000000	1.00000000	0.60000000	50.85000000	2.61421353	5.10539977	0.90000000	0.60000000	1.00000000	0.76530399	73.90000000	55.80000000	79.30000000	93.50000000	73.90000000
35	427.50000000	952.50000000	42.80000000	95.20000000	0.65000000	1.20000000	0.50000000	87.47000000	3.67279218	5.56959491	1.20000000	0.60000000	1.20000000	0.90622266	113.40000000	79.90000000	122.60000000	153.10000000	113.30000000
36	891.50000000	526.00000000	89.20000000	52.60000000	0.47000000	0.90000000	0.70000000	32.48000000	2.58994948	5.04620245	0.80000000	0.70000000	0.90000000	0.76945201	135.20000000	94.70000000	148.40000000	172.90000000	135.10000000
37	377.00000000	11.50000000	37.70000000	1.20000000	1.00000000	1.60000000	0.90000000	30.52000000	4.23847760	8.00868922	1.50000000	1.00000000	1.60000000	1.12555468	168.90000000	128.40000000	183.00000000	202.90000000	168.90000000
38	1001.50000000	649.50000000	100.20000000	65.00000000	1.12000000	1.80000000	0.80000000	114.55000000	4.48700570	8.47311969	1.80000000	0.90000000	1.80000000	1.19149574	73.40000000	52.60000000	79.60000000	95.50000000	73.30000000
39	336.00000000	406.50000000	33.60000000	40.70000000	1.92000000	2.30000000	1.00000000	89.48000000	6.65269115	10.77353731	2.30000000	1.30000000	2.30000000	1.56149087	117.10000000	82.20000000	127.40000000	155.90000000	117.10000000
40	879.50000000	529.00000000	88.00000000	52.90000000	0.60000000	1.10000000	0.60000000	48.08000000	3.12132032	5.45684568	1.10000000	0.70000000	1.10000000	0.87038930	131.30000000	93.90000000	143.90000000	164.80000000	131.30000000
41	686.00000000	229.00000000	68.60000000	22.90000000	0.35000000	0.90000000	0.40000000	1.24000000	2.35563489	4.23655985	0.70000000	0.60000000	0.90000000	0.66277269	76.40000000	57.10000000	82.00000000	98.20000000	76.40000000
42	1050.50000000	679.50000000	105.10000000	68.00000000	0.42000000	0.80000000	0.70000000	140.00000000	2.47279218	4.71762642	0.80000000	0.70000000	0.80000000	0.72690743	70.50000000	52.50000000	76.40000000	87.10000000	70.50000000

#4
liczenie
obiektów (w)	udział punktów	pole obrazu(mm²)
	52	100.00	12288.0000
nr.	x(pix.):	y(pix.):	x(mm):	y(mm):	powierzchnia:(mm²)	długość:(mm)	szerokość:(mm)	kąt:(°)	obwód:(mm)	obwód C.:(mm)	średnica Fereta H(mm)	średnica Fereta V(mm)	średn. Martina:(mm)	średn. sitowa:(mm)	średnia jaskrawość	R	G	B	Y
1	103.50000000	874.00000000	10.40000000	87.40000000	0.58000000	1.10000000	0.70000000	174.17000000	3.03847758	5.72489813	1.10000000	0.70000000	1.10000000	0.85563587	110.90000000	78.20000000	121.10000000	144.20000000	110.90000000
2	1243.50000000	901.00000000	124.40000000	90.10000000	0.71000000	1.20000000	0.70000000	26.21000000	3.29705623	6.07282316	1.20000000	0.80000000	1.20000000	0.95078919	132.90000000	92.50000000	146.70000000	168.30000000	133.00000000
3	732.50000000	257.00000000	73.20000000	25.70000000	0.58000000	1.20000000	0.50000000	80.40000000	3.01421355	5.56959491	1.10000000	0.70000000	1.20000000	0.85934797	172.70000000	135.90000000	185.90000000	200.50000000	172.60000000
4	1042.50000000	297.00000000	104.20000000	29.70000000	0.58000000	0.90000000	0.50000000	47.82000000	2.83847759	4.48845712	0.90000000	0.70000000	0.90000000	0.85563587	145.40000000	105.60000000	160.00000000	175.10000000	145.40000000
5	1241.00000000	403.50000000	124.10000000	40.40000000	0.59000000	1.00000000	0.60000000	52.96000000	3.26274166	5.10539977	1.10000000	0.70000000	1.00000000	0.86672448	114.00000000	79.20000000	125.40000000	146.60000000	114.00000000
6	873.00000000	535.50000000	87.30000000	53.60000000	0.41000000	0.80000000	0.20000000	70.87000000	2.41421354	3.43136785	0.80000000	0.60000000	0.80000000	0.72251520	150.30000000	111.80000000	164.40000000	179.20000000	150.40000000
7	921.00000000	456.50000000	92.10000000	45.70000000	0.50000000	0.90000000	0.70000000	179.35000000	2.67279217	5.04620245	0.90000000	0.70000000	0.90000000	0.79388511	156.20000000	117.20000000	170.50000000	185.00000000	156.20000000
8	769.00000000	92.50000000	76.90000000	9.20000000	0.73000000	1.20000000	0.30000000	27.30000000	3.35563488	5.14705178	1.20000000	0.80000000	1.20000000	0.96078024	151.70000000	110.60000000	166.40000000	184.40000000	151.70000000
9	605.50000000	390.00000000	60.60000000	39.00000000	0.64000000	1.10000000	0.70000000	160.59000000	3.17989894	5.72489813	1.00000000	0.80000000	1.10000000	0.90270333	149.40000000	110.60000000	163.50000000	178.90000000	149.40000000
10	807.50000000	745.00000000	80.80000000	74.50000000	0.53000000	1.00000000	0.60000000	46.57000000	2.83847759	5.10539977	1.00000000	0.60000000	1.00000000	0.81758838	94.90000000	66.40000000	102.90000000	127.90000000	94.90000000
11	89.00000000	617.00000000	8.90000000	61.70000000	1.30000000	1.50000000	1.10000000	147.91000000	4.60416299	8.21654502	1.50000000	1.10000000	1.50000000	1.28407368	96.10000000	69.60000000	104.20000000	123.90000000	96.10000000
12	571.50000000	522.50000000	57.20000000	52.20000000	0.92000000	1.10000000	1.00000000	133.27000000	3.63847756	6.60108509	1.10000000	1.00000000	1.10000000	1.07935823	160.50000000	122.90000000	173.20000000	194.20000000	160.50000000
13	479.00000000	269.50000000	47.90000000	27.00000000	0.59000000	1.00000000	0.70000000	176.28000000	2.93137083	5.38236898	1.00000000	0.70000000	1.00000000	0.86672448	166.00000000	126.90000000	180.40000000	194.10000000	166.00000000
14	418.50000000	617.50000000	41.90000000	61.80000000	0.67000000	1.00000000	0.80000000	45.00000000	3.01421350	5.67233358	0.90000000	0.90000000	1.00000000	0.92361815	145.00000000	108.40000000	158.30000000	172.40000000	145.00000000
15	476.00000000	483.50000000	47.60000000	48.40000000	0.84000000	1.30000000	0.90000000	178.09000000	3.72132032	6.96874271	1.10000000	1.00000000	1.30000000	1.03109409	158.60000000	121.80000000	171.40000000	190.20000000	158.70000000
16	178.00000000	555.00000000	17.80000000	55.50000000	0.49000000	1.00000000	0.20000000	51.21000000	2.67279216	4.20200533	1.00000000	0.60000000	1.00000000	0.78582516	154.60000000	114.00000000	169.10000000	186.50000000	154.60000000
17	334.00000000	390.00000000	33.40000000	39.00000000	0.60000000	1.10000000	0.70000000	178.71000000	2.95563487	5.72489813	1.10000000	0.70000000	1.10000000	0.87038930	152.00000000	114.20000000	165.90000000	179.60000000	152.00000000
18	334.00000000	443.00000000	33.40000000	44.30000000	0.63000000	1.10000000	0.30000000	177.12000000	3.23847759	4.76528499	1.00000000	0.80000000	1.10000000	0.89206206	148.80000000	112.40000000	161.70000000	177.50000000	148.70000000
19	1052.50000000	12.00000000	105.20000000	1.20000000	0.44000000	0.90000000	0.70000000	45.00000000	2.44852812	5.04620245	0.70000000	0.70000000	0.90000000	0.74848206	155.50000000	116.90000000	169.50000000	184.30000000	155.50000000
20	401.50000000	103.50000000	40.20000000	10.40000000	0.70000000	1.10000000	0.60000000	123.63000000	3.23847756	5.45684568	1.00000000	0.80000000	1.10000000	0.94069202	142.70000000	105.60000000	156.10000000	170.90000000	142.70000000
21	437.00000000	674.50000000	43.70000000	67.50000000	0.67000000	1.10000000	1.00000000	112.29000000	3.12132028	6.60108509	0.90000000	0.80000000	1.10000000	0.92016536	164.40000000	128.70000000	176.80000000	193.70000000	164.40000000
22	1010.50000000	824.00000000	101.10000000	82.40000000	0.35000000	0.80000000	0.60000000	24.37000000	2.27279217	4.42069843	0.70000000	0.60000000	0.80000000	0.66277269	75.80000000	54.40000000	82.00000000	99.60000000	75.80000000
23	461.00000000	703.50000000	46.10000000	70.40000000	0.64000000	1.10000000	0.80000000	25.43000000	3.07279218	6.00628745	0.90000000	0.90000000	1.10000000	0.89917023	166.00000000	126.60000000	180.70000000	194.00000000	166.00000000
24	147.50000000	722.50000000	14.80000000	72.20000000	0.76000000	1.10000000	0.90000000	0.12000000	3.37989893	6.29890311	1.00000000	1.00000000	1.10000000	0.98369815	167.10000000	133.50000000	178.90000000	194.50000000	167.10000000
25	1176.50000000	482.50000000	117.70000000	48.20000000	0.76000000	1.10000000	0.90000000	35.94000000	3.37989895	6.29890311	1.10000000	0.80000000	1.10000000	0.98369815	138.50000000	99.60000000	151.80000000	173.10000000	138.60000000
26	310.00000000	144.50000000	31.00000000	14.50000000	0.99000000	1.30000000	1.10000000	33.22000000	3.69705622	7.55291803	1.10000000	1.10000000	1.30000000	1.12272310	169.90000000	137.20000000	181.60000000	195.00000000	169.90000000
27	921.50000000	103.00000000	92.20000000	10.30000000	0.71000000	1.10000000	0.90000000	90.12000000	3.17989894	6.29890311	1.00000000	0.80000000	1.10000000	0.95078919	146.20000000	109.20000000	158.90000000	178.40000000	146.30000000
28	18.50000000	569.50000000	1.90000000	57.00000000	0.84000000	0.00000000	0.00000000	0.00000000	3.35563486	3.35563486	1.10000000	0.90000000	0.00000000	1.03109409	175.00000000	142.70000000	186.20000000	202.00000000	175.00000000
29	80.00000000	266.00000000	8.00000000	26.60000000	0.64000000	1.00000000	0.10000000	38.76000000	3.01421355	4.06392721	0.90000000	0.90000000	1.00000000	0.90270333	151.00000000	112.50000000	165.50000000	177.70000000	151.00000000
30	798.00000000	861.50000000	79.80000000	86.20000000	1.24000000	1.60000000	1.00000000	141.55000000	4.32132030	8.27725521	1.60000000	1.00000000	1.60000000	1.25397402	167.60000000	132.00000000	179.90000000	197.80000000	167.70000000
31	9.00000000	491.50000000	0.90000000	49.20000000	0.42000000	0.80000000	0.80000000	22.10000000	2.38994946	5.02654825	0.70000000	0.70000000	0.80000000	0.72690743	126.40000000	97.70000000	137.10000000	147.10000000	126.40000000
32	688.00000000	154.50000000	68.80000000	15.50000000	0.56000000	0.90000000	0.60000000	77.41000000	2.78994948	4.75963188	0.90000000	0.70000000	0.90000000	0.84062355	140.80000000	104.30000000	154.20000000	168.00000000	140.80000000
33	781.50000000	264.50000000	78.20000000	26.50000000	0.42000000	0.80000000	0.80000000	22.10000000	2.38994946	5.02654825	0.70000000	0.70000000	0.80000000	0.72690743	81.40000000	56.00000000	87.40000000	117.10000000	81.40000000
34	518.50000000	498.50000000	51.90000000	49.90000000	1.60000000	2.20000000	1.10000000	118.41000000	5.51126975	10.65729304	2.10000000	1.10000000	2.20000000	1.42729929	148.60000000	106.30000000	162.80000000	186.10000000	148.60000000
35	1268.50000000	755.50000000	126.90000000	75.50000000	0.90000000	1.30000000	0.90000000	128.45000000	3.73137083	6.96874271	1.10000000	0.90000000	1.30000000	1.07047447	152.10000000	111.20000000	166.30000000	185.90000000	152.10000000
36	1216.00000000	343.50000000	121.60000000	34.40000000	0.91000000	1.50000000	0.80000000	47.64000000	4.22842705	7.39397902	1.40000000	0.80000000	1.50000000	1.07640512	145.70000000	106.10000000	159.40000000	178.90000000	145.70000000
37	855.50000000	117.50000000	85.60000000	11.80000000	2.18000000	2.10000000	1.20000000	177.66000000	5.62842710	10.56094866	2.10000000	1.30000000	2.10000000	1.66603187	183.20000000	151.10000000	193.50000000	214.10000000	183.20000000
38	853.50000000	733.00000000	85.40000000	73.30000000	0.28000000	0.80000000	0.50000000	85.42000000	1.98994946	4.13862761	0.70000000	0.50000000	0.80000000	0.59172703	98.10000000	71.70000000	106.80000000	122.80000000	98.10000000
39	603.50000000	820.50000000	60.40000000	82.10000000	0.36000000	0.80000000	0.80000000	77.15000000	2.35563488	5.02654825	0.70000000	0.60000000	0.80000000	0.67230948	75.70000000	54.10000000	82.80000000	96.10000000	75.70000000
40	245.00000000	45.50000000	24.50000000	4.50000000	0.73000000	0.00000000	0.00000000	0.00000000	3.43847761	3.43847761	1.40000000	0.70000000	0.00000000	0.96078024	149.90000000	112.90000000	163.10000000	178.80000000	149.90000000
41	537.00000000	610.50000000	53.70000000	61.10000000	1.72000000	2.00000000	1.00000000	43.39000000	5.41837659	9.68844822	2.00000000	1.10000000	2.00000000	1.47770289	178.90000000	138.60000000	193.00000000	212.40000000	178.90000000
42	637.50000000	167.50000000	63.80000000	16.80000000	0.28000000	0.80000000	0.50000000	85.30000000	2.13137082	4.13862761	0.70000000	0.50000000	0.80000000	0.59708213	79.40000000	58.50000000	86.00000000	100.30000000	79.40000000
43	879.00000000	953.00000000	87.90000000	95.30000000	0.30000000	0.90000000	0.20000000	79.19000000	2.30710676	3.81553916	0.90000000	0.40000000	0.90000000	0.61286676	142.10000000	108.60000000	152.90000000	175.20000000	142.20000000
44	694.00000000	507.00000000	69.40000000	50.70000000	0.84000000	1.60000000	0.80000000	118.26000000	3.92132032	7.75075857	1.50000000	0.80000000	1.60000000	1.03109409	74.30000000	54.30000000	80.80000000	93.10000000	74.30000000
45	195.00000000	813.00000000	19.50000000	81.30000000	4.93000000	6.50000000	1.10000000	28.02000000	14.96812390	26.99978413	6.50000000	1.20000000	6.50000000	2.50540834	172.50000000	127.80000000	188.20000000	209.10000000	172.50000000
46	611.50000000	778.50000000	61.20000000	77.90000000	4.67000000	3.80000000	1.50000000	137.93000000	9.62253954	17.44405374	3.70000000	1.60000000	3.80000000	2.43844801	175.00000000	132.10000000	190.00000000	210.30000000	175.00000000
47	746.00000000	78.50000000	74.60000000	7.90000000	0.48000000	0.90000000	0.90000000	27.95000000	2.73137083	5.65486678	0.80000000	0.70000000	0.90000000	0.78176402	68.40000000	51.50000000	74.30000000	82.00000000	68.40000000
48	584.00000000	730.00000000	58.40000000	73.00000000	1.06000000	2.20000000	0.50000000	96.11000000	5.17989894	9.34625691	2.10000000	0.80000000	2.20000000	1.16173746	83.70000000	59.70000000	91.70000000	105.20000000	83.70000000
49	1269.50000000	430.50000000	127.00000000	43.10000000	0.58000000	1.00000000	0.90000000	153.68000000	3.14558437	5.97316043	0.90000000	0.80000000	1.00000000	0.85934797	46.10000000	32.20000000	49.00000000	67.90000000	46.10000000
50	489.50000000	136.00000000	49.00000000	13.60000000	2.42000000	4.40000000	0.70000000	80.15000000	10.26690464	18.21138891	4.30000000	1.00000000	4.40000000	1.75353172	76.90000000	55.50000000	84.00000000	96.20000000	76.90000000
51	25.00000000	780.50000000	2.50000000	78.10000000	0.47000000	0.90000000	0.70000000	149.18000000	2.77989893	5.04620245	0.80000000	0.80000000	0.90000000	0.77357778	58.90000000	45.60000000	63.00000000	73.00000000	58.90000000
52	564.00000000	751.00000000	56.40000000	75.10000000	1.39000000	2.50000000	0.70000000	144.78000000	6.18406197	10.86546332	2.50000000	0.80000000	2.50000000	1.32794457	79.00000000	56.20000000	86.50000000	100.40000000	79.10000000

#5
liczenie
obiektów (w)	udział punktów	pole obrazu(mm²)
	52	100.00	12288.0000
nr.	x(pix.):	y(pix.):	x(mm):	y(mm):	powierzchnia:(mm²)	długość:(mm)	szerokość:(mm)	kąt:(°)	obwód:(mm)	obwód C.:(mm)	średnica Fereta H(mm)	średnica Fereta V(mm)	średn. Martina:(mm)	średn. sitowa:(mm)	średnia jaskrawość	R	G	B	Y
1	755.00000000	528.50000000	75.50000000	52.90000000	0.36000000	0.70000000	0.50000000	45.00000000	2.21421351	3.79613689	0.70000000	0.60000000	0.70000000	0.67702750	107.00000000	76.00000000	116.60000000	138.90000000	107.00000000
2	1244.00000000	600.00000000	124.40000000	60.00000000	0.52000000	1.00000000	0.80000000	65.76000000	2.67279216	5.67233358	0.90000000	0.70000000	1.00000000	0.80976439	119.50000000	82.90000000	131.50000000	154.10000000	119.50000000
3	770.50000000	351.50000000	77.10000000	35.10000000	0.33000000	0.70000000	0.80000000	162.52000000	2.27279220	4.71762642	0.80000000	0.60000000	0.70000000	0.64327510	89.80000000	64.60000000	97.30000000	117.50000000	89.80000000
4	818.00000000	763.50000000	81.80000000	76.40000000	0.66000000	1.00000000	0.90000000	120.54000000	3.17989895	5.97316043	0.90000000	0.80000000	1.00000000	0.91669957	157.20000000	123.70000000	168.70000000	186.00000000	157.20000000
5	559.50000000	453.00000000	56.00000000	45.30000000	0.44000000	0.70000000	0.70000000	0.00000000	2.44852812	4.39822972	0.70000000	0.70000000	0.70000000	0.74848206	126.10000000	90.30000000	138.10000000	158.30000000	126.10000000
6	1013.00000000	865.50000000	101.30000000	86.60000000	0.34000000	0.70000000	0.60000000	131.25000000	2.35563488	4.09011421	0.70000000	0.60000000	0.70000000	0.65309666	97.30000000	66.70000000	105.60000000	135.20000000	97.30000000
7	189.00000000	48.00000000	18.90000000	4.80000000	0.74000000	1.10000000	0.90000000	153.29000000	3.29705622	6.29890311	1.00000000	0.90000000	1.10000000	0.97066846	155.30000000	119.00000000	168.20000000	184.20000000	155.30000000
8	424.00000000	41.50000000	42.40000000	4.20000000	0.58000000	0.90000000	0.80000000	139.60000000	2.95563488	5.34532850	0.90000000	0.80000000	0.90000000	0.85563587	109.10000000	73.50000000	119.70000000	147.50000000	109.00000000
9	538.00000000	573.50000000	53.80000000	57.40000000	0.63000000	1.10000000	0.80000000	154.20000000	3.32132030	6.00628745	1.00000000	0.80000000	1.10000000	0.89206206	139.40000000	104.60000000	151.50000000	168.30000000	139.40000000
10	923.00000000	867.50000000	92.30000000	86.80000000	0.58000000	0.00000000	0.00000000	0.00000000	2.84852812	2.84852812	0.90000000	0.70000000	0.00000000	0.85934797	162.00000000	124.20000000	175.60000000	191.00000000	162.00000000
11	1053.50000000	324.50000000	105.40000000	32.50000000	0.83000000	1.30000000	0.40000000	134.21000000	3.60416301	5.72199943	1.30000000	0.80000000	1.30000000	1.02490128	117.40000000	80.30000000	129.80000000	151.10000000	117.40000000
12	744.00000000	296.50000000	74.40000000	29.70000000	0.82000000	1.30000000	0.40000000	90.60000000	3.53137082	5.72199943	1.30000000	0.70000000	1.30000000	1.02179079	162.20000000	123.50000000	175.60000000	194.70000000	162.20000000
13	227.50000000	42.00000000	22.80000000	4.20000000	0.30000000	0.70000000	0.60000000	175.51000000	2.15563488	4.09011421	0.60000000	0.60000000	0.70000000	0.61286676	85.90000000	64.80000000	92.10000000	109.40000000	85.90000000
14	1270.00000000	419.00000000	127.00000000	41.90000000	0.29000000	0.70000000	0.40000000	14.99000000	2.04852811	3.52031622	0.70000000	0.50000000	0.70000000	0.60765078	89.50000000	60.30000000	97.60000000	125.20000000	89.60000000
15	348.00000000	730.50000000	34.80000000	73.00000000	0.72000000	1.20000000	0.80000000	30.58000000	3.23847760	6.34617584	1.10000000	0.80000000	1.20000000	0.95413116	144.20000000	107.30000000	157.00000000	176.10000000	144.30000000
16	404.00000000	29.00000000	40.40000000	2.90000000	0.45000000	0.70000000	0.70000000	90.51000000	2.53137083	4.39822972	0.80000000	0.70000000	0.70000000	0.75693976	152.50000000	117.10000000	165.60000000	177.90000000	152.50000000
17	38.50000000	699.00000000	3.90000000	69.90000000	1.36000000	1.60000000	1.00000000	40.85000000	4.43847760	8.27725521	1.30000000	1.30000000	1.60000000	1.31348376	168.30000000	130.60000000	181.10000000	201.90000000	168.40000000
18	910.00000000	577.50000000	91.00000000	57.80000000	1.23000000	1.70000000	0.90000000	7.15000000	4.55563488	8.36264176	1.70000000	0.90000000	1.70000000	1.24888688	151.30000000	107.70000000	166.50000000	187.50000000	151.30000000
19	593.50000000	556.50000000	59.40000000	55.70000000	0.96000000	1.20000000	1.00000000	119.01000000	3.77989895	6.92579120	1.20000000	1.00000000	1.20000000	1.10558128	157.50000000	121.90000000	169.20000000	190.90000000	157.50000000
20	168.00000000	715.00000000	16.80000000	71.50000000	0.92000000	1.70000000	0.60000000	55.21000000	4.36984842	7.64512939	1.70000000	0.80000000	1.70000000	1.07935823	148.20000000	106.50000000	162.80000000	182.80000000	148.20000000
21	75.00000000	440.50000000	7.50000000	44.10000000	0.90000000	1.50000000	0.70000000	87.63000000	3.75563486	7.14193743	1.50000000	0.70000000	1.50000000	1.06749679	168.60000000	132.10000000	181.50000000	197.20000000	168.50000000
22	328.00000000	497.50000000	32.80000000	49.80000000	1.15000000	1.30000000	0.80000000	20.17000000	3.97989893	6.69118043	1.30000000	1.10000000	1.30000000	1.21005185	163.40000000	122.20000000	177.40000000	198.90000000	163.40000000
23	731.00000000	429.50000000	73.10000000	43.00000000	0.90000000	1.50000000	0.80000000	102.22000000	3.97989897	7.39397902	1.50000000	0.90000000	1.50000000	1.07047447	151.80000000	113.40000000	165.00000000	184.20000000	151.80000000
24	410.50000000	170.50000000	41.10000000	17.10000000	0.38000000	0.80000000	0.50000000	45.00000000	2.27279216	4.13862761	0.80000000	0.60000000	0.80000000	0.69098830	86.80000000	63.70000000	94.40000000	108.00000000	86.80000000
25	904.50000000	173.00000000	90.50000000	17.30000000	0.43000000	0.80000000	0.10000000	45.00000000	2.44852811	3.27447660	0.70000000	0.70000000	0.80000000	0.73992770	92.00000000	59.60000000	100.60000000	133.50000000	92.10000000
26	314.00000000	895.50000000	31.40000000	89.60000000	1.07000000	1.70000000	0.30000000	2.15000000	4.43847758	7.08006247	1.70000000	0.80000000	1.70000000	1.16447418	147.30000000	105.30000000	162.20000000	181.10000000	147.30000000
27	1040.00000000	789.00000000	104.00000000	78.90000000	0.80000000	1.30000000	0.90000000	96.94000000	3.69705623	6.96874271	1.30000000	0.90000000	1.30000000	1.00925301	138.50000000	99.90000000	151.90000000	171.20000000	138.50000000
28	604.50000000	424.50000000	60.50000000	42.50000000	1.21000000	1.50000000	1.00000000	85.15000000	4.26274166	7.93271979	1.30000000	1.20000000	1.50000000	1.24121708	170.30000000	136.00000000	181.20000000	204.30000000	170.30000000
29	436.00000000	339.00000000	43.60000000	33.90000000	0.34000000	0.70000000	0.50000000	0.20000000	2.24852812	3.79613689	0.70000000	0.60000000	0.70000000	0.65795246	128.50000000	92.80000000	140.90000000	158.10000000	128.50000000
30	1167.50000000	731.50000000	116.80000000	73.20000000	0.90000000	1.20000000	0.90000000	134.48000000	3.69705623	6.63104765	1.30000000	0.90000000	1.20000000	1.07047447	142.60000000	103.30000000	156.50000000	174.00000000	142.60000000
31	18.00000000	564.00000000	1.80000000	56.40000000	0.98000000	1.50000000	0.70000000	2.76000000	4.21421353	7.14193743	1.50000000	0.80000000	1.50000000	1.11703839	166.90000000	128.00000000	180.80000000	197.10000000	166.90000000
32	379.00000000	292.50000000	37.90000000	29.20000000	0.90000000	1.40000000	0.30000000	136.18000000	3.72132031	5.91620038	1.30000000	0.80000000	1.40000000	1.06749679	157.20000000	118.70000000	170.50000000	190.20000000	157.30000000
33	131.00000000	170.00000000	13.10000000	17.00000000	0.68000000	1.00000000	0.90000000	138.62000000	3.07279217	5.97316043	0.90000000	0.90000000	1.00000000	0.92705808	167.50000000	132.70000000	180.00000000	194.90000000	167.50000000
34	1271.00000000	135.50000000	127.10000000	13.60000000	0.43000000	1.10000000	0.50000000	7.62000000	2.73137081	5.20487381	1.10000000	0.50000000	1.10000000	0.73992770	139.30000000	97.40000000	154.10000000	173.20000000	139.30000000
35	727.50000000	144.00000000	72.80000000	14.40000000	1.49000000	1.70000000	0.90000000	9.15000000	4.72132030	8.36264176	1.70000000	1.10000000	1.70000000	1.37504935	161.70000000	122.10000000	175.50000000	194.50000000	161.70000000
36	69.50000000	177.50000000	7.00000000	17.80000000	0.30000000	0.70000000	0.50000000	104.69000000	2.35563489	3.79613689	0.70000000	0.60000000	0.70000000	0.61286676	98.80000000	73.80000000	107.40000000	120.30000000	98.80000000
37	1109.00000000	951.50000000	110.90000000	95.20000000	0.41000000	0.70000000	0.70000000	0.00000000	2.33137083	4.39822972	0.70000000	0.70000000	0.70000000	0.72251520	82.40000000	54.20000000	88.90000000	122.90000000	82.40000000
38	1208.50000000	327.50000000	120.90000000	32.80000000	1.51000000	1.90000000	0.80000000	6.54000000	5.01421353	8.83808840	1.90000000	0.90000000	1.90000000	1.38657553	161.00000000	115.50000000	176.90000000	198.60000000	161.00000000
39	372.00000000	107.50000000	37.20000000	10.80000000	0.30000000	0.80000000	0.20000000	81.40000000	2.13137082	3.43136785	0.80000000	0.50000000	0.80000000	0.61803872	91.40000000	63.60000000	99.20000000	124.60000000	91.40000000
40	857.50000000	169.50000000	85.80000000	16.90000000	0.67000000	1.00000000	0.80000000	45.00000000	3.01421350	5.67233358	0.90000000	0.90000000	1.00000000	0.92361815	154.80000000	120.90000000	166.80000000	183.00000000	154.90000000
41	40.50000000	119.00000000	4.00000000	11.90000000	0.70000000	1.10000000	1.00000000	21.67000000	3.13137082	6.60108509	0.90000000	0.90000000	1.10000000	0.94406974	170.10000000	138.90000000	181.00000000	196.30000000	170.20000000
42	507.50000000	212.00000000	50.80000000	21.20000000	0.26000000	0.70000000	0.50000000	110.16000000	2.01421354	3.79613689	0.60000000	0.50000000	0.70000000	0.57536274	98.20000000	73.20000000	106.00000000	123.40000000	98.20000000
43	1264.50000000	623.50000000	126.50000000	62.40000000	0.75000000	1.20000000	0.90000000	82.28000000	3.29705623	6.63104765	1.00000000	1.00000000	1.20000000	0.97720502	155.10000000	115.50000000	169.00000000	186.80000000	155.10000000
44	1142.50000000	424.00000000	114.20000000	42.40000000	0.29000000	0.70000000	0.50000000	72.98000000	2.07279216	3.79613689	0.60000000	0.60000000	0.70000000	0.60238963	73.10000000	51.70000000	79.50000000	96.70000000	73.10000000
45	487.50000000	240.00000000	48.80000000	24.00000000	1.98000000	2.30000000	1.00000000	45.38000000	5.87695524	10.77353731	2.30000000	1.10000000	2.30000000	1.58777023	169.00000000	124.70000000	184.30000000	206.60000000	169.00000000
46	657.00000000	417.00000000	65.70000000	41.70000000	2.64000000	2.90000000	1.20000000	94.65000000	7.12132030	13.44036278	2.90000000	1.10000000	2.90000000	1.83166214	167.30000000	125.80000000	181.10000000	204.80000000	167.30000000
47	738.00000000	231.00000000	73.80000000	23.10000000	2.66000000	3.10000000	1.20000000	109.54000000	7.53553382	14.17668932	3.20000000	1.20000000	3.10000000	1.83860028	145.90000000	103.00000000	160.30000000	184.90000000	146.00000000
48	671.50000000	350.50000000	67.20000000	35.10000000	0.30000000	0.70000000	0.50000000	179.02000000	2.13137083	3.79613689	0.70000000	0.60000000	0.70000000	0.61803872	67.30000000	49.40000000	72.90000000	85.40000000	67.30000000
49	1268.00000000	641.50000000	126.80000000	64.20000000	0.82000000	1.30000000	0.80000000	70.76000000	3.75563487	6.69118043	1.10000000	0.90000000	1.30000000	1.01867081	154.00000000	105.60000000	170.80000000	194.60000000	154.00000000
50	451.50000000	5.00000000	45.20000000	0.50000000	0.85000000	0.00000000	0.00000000	0.00000000	6.76984843	6.76984843	2.70000000	0.60000000	0.00000000	1.03724993	34.00000000	27.70000000	35.00000000	44.70000000	34.00000000
51	1017.50000000	762.00000000	101.80000000	76.20000000	0.23000000	0.60000000	0.10000000	146.19000000	1.78994948	2.49000307	0.60000000	0.50000000	0.60000000	0.53523723	60.60000000	44.50000000	65.20000000	79.10000000	60.60000000
52	162.00000000	557.50000000	16.20000000	55.80000000	0.67000000	1.20000000	0.50000000	73.00000000	3.18994948	5.56959491	1.10000000	0.70000000	1.20000000	0.92016536	165.50000000	128.40000000	178.50000000	196.10000000	165.50000000

#6
liczenie
obiektów (w)	udział punktów	pole obrazu(mm²)
	53	100.00	12288.0000
nr.	x(pix.):	y(pix.):	x(mm):	y(mm):	powierzchnia:(mm²)	długość:(mm)	szerokość:(mm)	kąt:(°)	obwód:(mm)	obwód C.:(mm)	średnica Fereta H(mm)	średnica Fereta V(mm)	średn. Martina:(mm)	średn. sitowa:(mm)	średnia jaskrawość	R	G	B	Y
1	271.50000000	532.50000000	27.20000000	53.20000000	2.44000000	3.70000000	0.80000000	63.10000000	8.60832602	15.64784938	3.70000000	0.80000000	3.70000000	1.76258460	137.20000000	95.50000000	149.40000000	183.20000000	137.20000000
2	1226.50000000	424.50000000	122.70000000	42.50000000	0.51000000	1.10000000	0.70000000	6.33000000	2.92132031	5.72489813	0.90000000	0.70000000	1.10000000	0.80186406	117.70000000	81.30000000	129.10000000	153.80000000	117.60000000
3	1184.00000000	687.50000000	118.40000000	68.80000000	0.30000000	0.70000000	0.50000000	114.74000000	2.29705623	3.79613689	0.70000000	0.60000000	0.70000000	0.61803872	89.50000000	62.70000000	97.30000000	120.20000000	89.50000000
4	796.00000000	776.00000000	79.60000000	77.60000000	0.84000000	0.00000000	0.00000000	0.00000000	3.35563486	3.35563486	1.10000000	0.90000000	0.00000000	1.03109409	100.70000000	71.90000000	110.50000000	125.20000000	100.70000000
5	100.00000000	572.00000000	10.00000000	57.20000000	0.73000000	1.20000000	0.80000000	64.62000000	3.49705625	6.34617584	1.20000000	0.80000000	1.20000000	0.96408758	159.80000000	117.10000000	175.70000000	189.90000000	159.80000000
6	797.50000000	617.00000000	79.80000000	61.70000000	0.56000000	1.00000000	0.80000000	154.95000000	2.78994946	5.67233358	0.90000000	0.70000000	1.00000000	0.84062355	147.80000000	111.60000000	161.00000000	174.60000000	147.80000000
7	264.00000000	769.50000000	26.40000000	77.00000000	0.28000000	0.70000000	0.60000000	166.41000000	2.07279217	4.09011421	0.60000000	0.60000000	0.70000000	0.59172703	135.80000000	103.70000000	147.00000000	162.80000000	135.80000000
8	593.00000000	948.00000000	59.30000000	94.80000000	0.33000000	0.70000000	0.50000000	90.00000000	2.16568542	3.79613689	0.70000000	0.50000000	0.70000000	0.64820448	116.00000000	84.20000000	126.10000000	147.80000000	116.10000000
9	978.50000000	124.00000000	97.90000000	12.40000000	0.92000000	1.30000000	0.20000000	17.34000000	3.69705625	5.37091913	1.30000000	0.90000000	1.30000000	1.08230328	140.80000000	99.00000000	155.20000000	176.00000000	140.80000000
10	186.00000000	856.00000000	18.60000000	85.60000000	0.78000000	1.30000000	0.80000000	28.11000000	3.41421353	6.69118043	1.10000000	0.90000000	1.30000000	0.99655750	151.20000000	112.20000000	164.90000000	182.90000000	151.20000000
11	489.00000000	846.50000000	48.90000000	84.70000000	0.38000000	0.70000000	0.70000000	166.98000000	2.27279217	4.39822972	0.70000000	0.60000000	0.70000000	0.69098830	119.60000000	90.00000000	129.90000000	144.50000000	119.60000000
12	136.50000000	564.00000000	13.70000000	56.40000000	0.49000000	0.90000000	0.60000000	82.69000000	2.61421351	4.75963188	0.80000000	0.80000000	0.90000000	0.78986542	83.50000000	59.00000000	90.40000000	112.40000000	83.50000000
13	75.00000000	577.50000000	7.50000000	57.80000000	0.64000000	0.90000000	0.30000000	141.09000000	3.03847759	4.00946783	0.90000000	0.80000000	0.90000000	0.89917023	141.60000000	103.70000000	155.40000000	169.60000000	141.60000000
14	1242.00000000	467.00000000	124.20000000	46.70000000	0.91000000	1.50000000	0.50000000	92.52000000	4.03847758	6.68244639	1.50000000	0.90000000	1.50000000	1.07344389	134.30000000	94.00000000	147.80000000	170.40000000	134.30000000
15	996.50000000	673.00000000	99.70000000	67.30000000	0.60000000	1.10000000	0.20000000	41.99000000	2.95563490	4.59027948	1.10000000	0.70000000	1.10000000	0.87038930	130.50000000	94.50000000	143.20000000	160.40000000	130.60000000
16	224.50000000	11.00000000	22.50000000	1.10000000	0.74000000	1.10000000	1.00000000	49.60000000	3.27279218	6.60108509	1.00000000	0.90000000	1.10000000	0.96738362	104.80000000	72.40000000	113.50000000	145.50000000	104.80000000
17	186.00000000	491.50000000	18.60000000	49.20000000	0.65000000	1.00000000	0.70000000	35.18000000	3.01421351	5.38236898	0.90000000	0.90000000	1.00000000	0.90972837	158.40000000	120.00000000	172.00000000	188.90000000	158.40000000
18	592.00000000	418.00000000	59.20000000	41.80000000	0.54000000	0.90000000	0.60000000	18.62000000	2.75563487	4.75963188	0.80000000	0.80000000	0.90000000	0.82533821	149.90000000	113.40000000	163.20000000	177.70000000	150.00000000
19	936.00000000	389.00000000	93.60000000	38.90000000	1.49000000	1.90000000	0.80000000	1.12000000	4.95563489	8.83808840	1.90000000	0.90000000	1.90000000	1.37504935	163.40000000	120.90000000	178.20000000	198.70000000	163.40000000
20	53.00000000	807.50000000	5.30000000	80.80000000	0.37000000	0.70000000	0.70000000	151.73000000	2.33137082	4.39822972	0.70000000	0.70000000	0.70000000	0.68636625	98.30000000	72.00000000	106.00000000	127.20000000	98.30000000
21	1170.50000000	591.50000000	117.10000000	59.20000000	0.82000000	1.10000000	1.00000000	130.60000000	3.52132027	6.60108509	1.10000000	0.90000000	1.10000000	1.01867081	142.70000000	104.80000000	155.90000000	174.50000000	142.70000000
22	453.00000000	150.50000000	45.30000000	15.10000000	0.47000000	0.90000000	0.40000000	81.21000000	2.61421351	4.23655985	0.80000000	0.70000000	0.90000000	0.77357778	150.50000000	109.40000000	165.70000000	180.40000000	150.50000000
23	334.50000000	343.00000000	33.50000000	34.30000000	0.44000000	0.80000000	0.70000000	55.59000000	2.47279217	4.71762642	0.80000000	0.70000000	0.80000000	0.74421717	127.30000000	93.30000000	139.60000000	152.90000000	127.30000000
24	254.50000000	479.50000000	25.50000000	48.00000000	0.71000000	1.10000000	0.80000000	115.80000000	3.23847758	6.00628745	1.10000000	0.80000000	1.10000000	0.94743542	128.90000000	91.40000000	141.20000000	163.90000000	128.90000000
25	164.00000000	260.00000000	16.40000000	26.00000000	2.26000000	2.60000000	1.10000000	120.82000000	6.47695516	12.10662146	2.60000000	1.10000000	2.60000000	1.69632584	149.90000000	107.20000000	164.60000000	186.20000000	149.90000000
26	744.00000000	57.00000000	74.40000000	5.70000000	0.72000000	1.30000000	0.70000000	50.92000000	3.76984843	6.42537074	1.20000000	0.80000000	1.30000000	0.95413116	131.00000000	91.90000000	143.50000000	169.40000000	131.00000000
27	830.50000000	249.50000000	83.10000000	25.00000000	1.48000000	1.80000000	0.90000000	117.31000000	5.11126977	8.71960339	1.90000000	1.10000000	1.80000000	1.37273250	157.60000000	114.40000000	173.30000000	190.50000000	157.60000000
28	670.50000000	213.00000000	67.00000000	21.30000000	0.56000000	1.00000000	0.80000000	63.35000000	2.87279217	5.67233358	1.00000000	0.70000000	1.00000000	0.84062355	168.40000000	132.00000000	181.90000000	193.90000000	168.40000000
29	469.00000000	602.50000000	46.90000000	60.20000000	0.93000000	1.60000000	0.70000000	51.70000000	3.92132032	7.50501473	1.60000000	0.80000000	1.60000000	1.08524033	159.20000000	118.40000000	173.70000000	191.00000000	159.10000000
30	1075.50000000	590.50000000	107.60000000	59.10000000	1.01000000	1.50000000	0.70000000	102.27000000	4.15563487	7.14193743	1.50000000	0.90000000	1.50000000	1.13119660	152.40000000	112.70000000	166.50000000	183.80000000	152.40000000
31	779.00000000	357.50000000	77.90000000	35.80000000	0.43000000	0.80000000	0.80000000	159.61000000	2.55563488	5.02654825	0.80000000	0.70000000	0.80000000	0.73561322	153.20000000	117.90000000	165.80000000	181.50000000	153.20000000
32	945.50000000	179.50000000	94.60000000	17.90000000	0.98000000	1.30000000	0.40000000	175.68000000	3.88700571	5.72199943	1.10000000	1.10000000	1.30000000	1.11418515	153.90000000	112.30000000	168.90000000	185.70000000	153.90000000
33	223.50000000	195.00000000	22.40000000	19.50000000	0.86000000	1.10000000	1.00000000	153.17000000	3.57989895	6.60108509	1.10000000	1.00000000	1.10000000	1.04641579	140.60000000	100.00000000	155.30000000	172.00000000	140.70000000
34	153.50000000	398.50000000	15.40000000	39.90000000	1.20000000	1.70000000	0.70000000	52.80000000	4.62842703	7.87078800	1.60000000	1.00000000	1.70000000	1.23607745	165.20000000	123.10000000	180.60000000	196.40000000	165.20000000
35	461.00000000	421.50000000	46.10000000	42.20000000	0.39000000	0.80000000	0.40000000	21.51000000	2.33137082	3.87537929	0.70000000	0.70000000	0.80000000	0.70467256	97.70000000	69.30000000	104.50000000	136.50000000	97.60000000
36	1171.50000000	299.50000000	117.20000000	30.00000000	1.77000000	2.10000000	1.10000000	7.04000000	5.62842706	10.30006948	2.10000000	1.10000000	2.10000000	1.50121084	165.30000000	123.50000000	180.00000000	199.50000000	165.30000000
37	437.50000000	611.50000000	43.80000000	61.20000000	0.29000000	0.80000000	0.50000000	90.63000000	2.07279217	4.13862761	0.60000000	0.60000000	0.80000000	0.60238963	118.80000000	83.20000000	128.70000000	161.70000000	118.80000000
38	1012.00000000	65.50000000	101.20000000	6.60000000	0.23000000	0.50000000	0.50000000	0.00000000	1.76568542	3.14159265	0.50000000	0.50000000	0.50000000	0.54115164	77.90000000	54.50000000	82.30000000	117.20000000	78.00000000
39	1092.50000000	22.50000000	109.20000000	2.20000000	0.49000000	0.90000000	0.40000000	19.85000000	2.69705622	4.23655985	0.80000000	0.70000000	0.90000000	0.78986542	95.00000000	66.20000000	103.50000000	127.30000000	95.00000000
40	59.50000000	720.50000000	6.00000000	72.00000000	2.12000000	2.40000000	0.60000000	114.66000000	6.13553383	10.29410356	2.40000000	1.10000000	2.40000000	1.64100629	168.00000000	129.40000000	181.80000000	198.10000000	168.00000000
41	1096.50000000	42.00000000	109.70000000	4.20000000	0.95000000	1.40000000	1.10000000	76.05000000	3.77989894	7.88228151	1.30000000	1.00000000	1.40000000	1.09980797	166.00000000	128.60000000	179.50000000	194.70000000	166.00000000
42	260.00000000	725.00000000	26.00000000	72.50000000	0.32000000	0.90000000	0.60000000	108.40000000	2.49705625	4.75963188	0.80000000	0.60000000	0.90000000	0.63830765	81.10000000	59.30000000	87.00000000	107.70000000	81.10000000
43	619.00000000	351.00000000	61.90000000	35.10000000	2.23000000	2.60000000	1.00000000	43.11000000	6.76984841	11.87550357	2.50000000	1.30000000	2.60000000	1.68313932	176.30000000	129.90000000	193.10000000	211.10000000	176.30000000
44	289.00000000	466.50000000	28.90000000	46.70000000	4.08000000	4.00000000	1.10000000	45.44000000	9.67106762	17.34586489	4.00000000	1.20000000	4.00000000	2.27921419	176.50000000	128.50000000	193.60000000	214.30000000	176.50000000
45	902.50000000	363.50000000	90.20000000	36.40000000	0.32000000	0.70000000	0.60000000	21.87000000	2.15563488	4.09011421	0.60000000	0.60000000	0.70000000	0.63330124	67.40000000	49.60000000	72.30000000	89.60000000	67.50000000
46	871.00000000	821.50000000	87.10000000	82.20000000	1.84000000	2.10000000	1.10000000	58.25000000	5.62842705	10.30006948	2.10000000	1.20000000	2.10000000	1.53060797	176.00000000	136.20000000	189.70000000	209.70000000	176.00000000
47	828.50000000	888.00000000	82.90000000	88.80000000	0.24000000	0.60000000	0.40000000	135.00000000	1.87279218	3.17308792	0.60000000	0.50000000	0.60000000	0.54700210	74.10000000	54.20000000	80.70000000	92.70000000	74.20000000
48	1166.50000000	558.50000000	116.70000000	55.90000000	0.31000000	0.70000000	0.70000000	170.67000000	2.13137083	4.39822972	0.60000000	0.60000000	0.70000000	0.62825493	61.10000000	43.30000000	63.70000000	93.90000000	61.10000000
49	874.00000000	436.00000000	87.40000000	43.60000000	0.40000000	0.80000000	0.50000000	130.75000000	2.41421354	4.13862761	0.80000000	0.60000000	0.80000000	0.71364965	60.90000000	44.40000000	64.50000000	85.10000000	60.80000000
50	1211.00000000	842.00000000	121.10000000	84.20000000	0.28000000	0.70000000	0.50000000	112.54000000	2.07279218	3.79613689	0.60000000	0.60000000	0.70000000	0.59172703	61.60000000	44.10000000	66.80000000	80.40000000	61.60000000
51	261.50000000	822.00000000	26.20000000	82.20000000	0.43000000	0.80000000	0.60000000	125.96000000	2.47279218	4.42069843	0.80000000	0.70000000	0.80000000	0.73561322	64.70000000	47.40000000	68.60000000	89.70000000	64.70000000
52	1191.50000000	405.50000000	119.20000000	40.60000000	0.24000000	0.60000000	0.50000000	105.73000000	1.84852812	3.46289560	0.60000000	0.50000000	0.60000000	0.55279064	54.40000000	39.80000000	57.50000000	76.20000000	54.40000000
53	686.50000000	436.00000000	68.70000000	43.60000000	0.40000000	0.70000000	0.70000000	45.00000000	2.33137082	4.39822972	0.70000000	0.70000000	0.70000000	0.71364965	58.30000000	44.50000000	62.20000000	74.00000000	58.20000000

#7
liczenie
obiektów (w)	udział punktów	pole obrazu(mm²)
	47	100.00	12288.0000
nr.	x(pix.):	y(pix.):	x(mm):	y(mm):	powierzchnia:(mm²)	długość:(mm)	szerokość:(mm)	kąt:(°)	obwód:(mm)	obwód C.:(mm)	średnica Fereta H(mm)	średnica Fereta V(mm)	średn. Martina:(mm)	średn. sitowa:(mm)	średnia jaskrawość	R	G	B	Y
1	954.00000000	456.50000000	95.40000000	45.70000000	0.43000000	0.80000000	0.10000000	45.00000000	2.44852811	3.27447660	0.70000000	0.70000000	0.80000000	0.73992770	137.90000000	98.90000000	151.60000000	169.90000000	137.90000000
2	1246.00000000	260.50000000	124.60000000	26.10000000	1.10000000	1.30000000	1.10000000	118.32000000	3.92132027	7.55291803	1.30000000	1.10000000	1.30000000	1.18076132	147.40000000	106.10000000	161.40000000	183.30000000	147.40000000
3	1215.50000000	603.50000000	121.60000000	60.40000000	0.37000000	0.70000000	0.70000000	151.73000000	2.33137082	4.39822972	0.70000000	0.70000000	0.70000000	0.68636625	111.70000000	76.70000000	122.80000000	146.80000000	111.70000000
4	597.00000000	301.50000000	59.70000000	30.20000000	0.94000000	0.00000000	0.00000000	0.00000000	3.69705622	3.69705622	1.10000000	1.10000000	0.00000000	1.09400419	158.60000000	120.90000000	171.50000000	191.40000000	158.60000000
5	553.50000000	400.50000000	55.40000000	40.10000000	0.32000000	0.70000000	0.20000000	12.32000000	2.27279218	3.05017875	0.70000000	0.60000000	0.70000000	0.63330124	84.40000000	62.40000000	91.20000000	107.20000000	84.40000000
6	475.50000000	397.00000000	47.60000000	39.70000000	1.30000000	1.30000000	1.20000000	141.54000000	4.40416301	7.85712354	1.30000000	1.20000000	1.30000000	1.28407368	148.10000000	113.90000000	159.00000000	182.10000000	148.10000000
7	1039.00000000	440.00000000	103.90000000	44.00000000	0.32000000	0.80000000	0.60000000	74.04000000	2.18994948	4.42069843	0.70000000	0.60000000	0.80000000	0.63330124	83.90000000	61.20000000	90.70000000	108.80000000	83.90000000
8	1116.00000000	720.50000000	111.60000000	72.00000000	0.53000000	0.00000000	0.00000000	0.00000000	2.73137081	2.73137081	0.90000000	0.70000000	0.00000000	0.82147243	135.70000000	101.60000000	147.70000000	163.50000000	135.80000000
9	39.50000000	137.50000000	4.00000000	13.80000000	0.24000000	0.60000000	0.50000000	105.73000000	1.84852812	3.46289560	0.60000000	0.50000000	0.60000000	0.55279064	116.40000000	88.70000000	126.10000000	138.90000000	116.40000000
10	274.50000000	419.00000000	27.50000000	41.90000000	0.48000000	0.90000000	0.20000000	79.65000000	2.55563486	3.81553916	0.80000000	0.70000000	0.90000000	0.77768167	134.00000000	99.40000000	146.60000000	159.60000000	134.00000000
11	805.50000000	202.00000000	80.60000000	20.20000000	0.93000000	1.40000000	0.60000000	165.12000000	4.03847760	6.53713333	1.40000000	0.90000000	1.40000000	1.08524033	149.10000000	109.40000000	163.20000000	180.20000000	149.10000000
12	1263.50000000	70.50000000	126.40000000	7.10000000	0.46000000	0.90000000	0.20000000	45.00000000	2.50710677	3.81553916	0.70000000	0.70000000	0.90000000	0.76113336	147.00000000	111.10000000	159.60000000	175.60000000	146.90000000
13	73.00000000	716.50000000	7.30000000	71.70000000	0.68000000	1.20000000	0.50000000	99.71000000	3.13137082	5.56959491	1.10000000	0.70000000	1.20000000	0.93048530	160.80000000	122.30000000	174.60000000	190.20000000	160.70000000
14	457.50000000	761.50000000	45.80000000	76.20000000	1.06000000	1.60000000	0.60000000	103.16000000	4.21421354	7.27337247	1.50000000	0.90000000	1.60000000	1.16173746	166.40000000	129.60000000	179.50000000	195.40000000	166.40000000
15	800.50000000	578.50000000	80.10000000	57.90000000	0.45000000	0.70000000	0.70000000	7.49000000	2.53137083	4.39822972	0.80000000	0.70000000	0.70000000	0.75693976	147.90000000	115.40000000	159.50000000	173.30000000	147.80000000
16	538.00000000	822.00000000	53.80000000	82.20000000	0.42000000	0.80000000	0.80000000	22.10000000	2.38994946	5.02654825	0.70000000	0.70000000	0.80000000	0.72690743	164.50000000	131.30000000	176.50000000	189.50000000	164.50000000
17	796.00000000	856.00000000	79.60000000	85.60000000	1.30000000	1.80000000	1.10000000	27.19000000	4.74558434	9.24381435	1.80000000	1.00000000	1.80000000	1.28655020	159.30000000	121.90000000	171.60000000	194.20000000	159.30000000
18	1176.00000000	674.00000000	117.60000000	67.40000000	0.67000000	1.20000000	0.40000000	17.00000000	3.18994948	5.34595711	1.10000000	0.70000000	1.20000000	0.92016536	138.50000000	101.50000000	151.00000000	170.70000000	138.50000000
19	252.50000000	511.50000000	25.20000000	51.20000000	0.42000000	0.80000000	0.70000000	33.86000000	2.38994948	4.71762642	0.70000000	0.70000000	0.80000000	0.72690743	145.10000000	111.70000000	157.00000000	171.20000000	145.10000000
20	1217.50000000	356.00000000	121.80000000	35.60000000	1.05000000	1.50000000	0.60000000	98.13000000	3.97989893	6.90393374	1.50000000	0.90000000	1.50000000	1.15624458	154.50000000	115.10000000	167.90000000	188.50000000	154.50000000
21	965.00000000	65.00000000	96.50000000	6.50000000	0.92000000	1.50000000	0.50000000	108.14000000	4.08700573	6.68244639	1.50000000	0.90000000	1.50000000	1.07935823	151.30000000	113.50000000	164.50000000	182.70000000	151.30000000
22	842.00000000	368.00000000	84.20000000	36.80000000	0.89000000	1.40000000	0.70000000	157.10000000	3.75563488	6.78191375	1.30000000	0.90000000	1.40000000	1.06151637	159.50000000	122.00000000	172.60000000	190.80000000	159.50000000
23	389.50000000	306.50000000	39.00000000	30.70000000	0.41000000	0.80000000	0.70000000	45.00000000	2.38994948	4.71762642	0.70000000	0.70000000	0.80000000	0.71809610	123.80000000	92.70000000	135.30000000	145.80000000	123.80000000
24	591.00000000	387.00000000	59.10000000	38.70000000	0.52000000	1.00000000	0.30000000	75.17000000	2.75563487	4.38590974	0.80000000	0.80000000	1.00000000	0.80976439	135.80000000	101.90000000	148.10000000	161.40000000	135.80000000
25	1210.00000000	15.00000000	121.00000000	1.50000000	1.04000000	1.40000000	0.90000000	34.32000000	3.92132028	7.31128766	1.40000000	0.90000000	1.40000000	1.14795598	143.90000000	103.90000000	157.40000000	179.40000000	143.90000000
26	372.50000000	218.00000000	37.20000000	21.80000000	0.42000000	0.00000000	0.00000000	0.00000000	2.38994946	2.38994946	0.70000000	0.70000000	0.00000000	0.72690743	102.60000000	74.90000000	111.90000000	127.90000000	102.70000000
27	187.00000000	225.50000000	18.70000000	22.60000000	1.47000000	1.60000000	1.20000000	144.65000000	4.80416299	8.84139686	1.50000000	1.30000000	1.60000000	1.36575837	167.00000000	127.10000000	181.00000000	199.70000000	167.00000000
28	1151.00000000	580.50000000	115.10000000	58.10000000	0.63000000	1.20000000	0.50000000	55.09000000	3.17989895	5.56959491	1.10000000	0.70000000	1.20000000	0.89562320	146.80000000	108.70000000	160.40000000	177.70000000	146.90000000
29	341.50000000	60.00000000	34.10000000	6.00000000	0.43000000	0.80000000	0.10000000	45.00000000	2.44852811	3.27447660	0.70000000	0.70000000	0.80000000	0.73992770	140.50000000	105.70000000	153.00000000	167.30000000	140.50000000
30	902.50000000	11.00000000	90.20000000	1.10000000	0.59000000	1.10000000	0.70000000	51.63000000	2.97989893	5.72489813	1.10000000	0.60000000	1.10000000	0.86672448	137.20000000	100.70000000	150.00000000	167.30000000	137.20000000
31	68.00000000	52.00000000	6.80000000	5.20000000	0.39000000	0.90000000	0.10000000	88.10000000	2.49705625	3.66875064	0.80000000	0.60000000	0.90000000	0.70467256	85.70000000	63.40000000	91.70000000	112.90000000	85.70000000
32	1212.50000000	485.50000000	121.20000000	48.60000000	0.33000000	0.70000000	0.60000000	81.53000000	2.18994948	4.09011421	0.70000000	0.60000000	0.70000000	0.64327510	87.00000000	62.40000000	95.10000000	109.60000000	87.00000000
33	474.50000000	650.00000000	47.50000000	65.00000000	0.38000000	0.80000000	0.70000000	52.81000000	2.27279216	4.71762642	0.70000000	0.60000000	0.80000000	0.69098830	84.90000000	63.30000000	91.00000000	109.90000000	84.90000000
34	1271.00000000	310.50000000	127.10000000	31.10000000	0.26000000	0.70000000	0.40000000	14.67000000	2.02426406	3.52031622	0.70000000	0.40000000	0.70000000	0.56980355	157.30000000	118.60000000	172.10000000	183.00000000	157.30000000
35	1270.50000000	210.00000000	127.10000000	21.00000000	0.43000000	0.00000000	0.00000000	0.00000000	2.87279216	2.87279216	1.10000000	0.60000000	0.00000000	0.73561322	137.20000000	100.90000000	149.60000000	168.20000000	137.20000000
36	1071.50000000	694.00000000	107.20000000	69.40000000	0.26000000	0.70000000	0.50000000	110.16000000	2.01421354	3.79613689	0.60000000	0.50000000	0.70000000	0.57536274	80.30000000	59.20000000	87.50000000	99.20000000	80.40000000
37	252.50000000	309.00000000	25.20000000	30.90000000	1.62000000	1.80000000	0.30000000	77.99000000	5.08700572	7.47000920	1.60000000	1.30000000	1.80000000	1.43397415	170.70000000	138.10000000	180.50000000	205.40000000	170.70000000
38	326.50000000	678.50000000	32.60000000	67.90000000	1.65000000	1.90000000	0.70000000	105.91000000	5.06274163	8.60925894	1.90000000	1.10000000	1.90000000	1.44942928	169.20000000	131.70000000	182.00000000	202.10000000	169.30000000
39	1132.50000000	280.00000000	113.20000000	28.00000000	1.37000000	1.70000000	0.90000000	49.58000000	4.76984842	8.36264176	1.70000000	1.00000000	1.70000000	1.31832165	174.90000000	136.90000000	187.90000000	207.90000000	174.90000000
40	998.00000000	696.50000000	99.80000000	69.70000000	0.50000000	0.00000000	0.00000000	0.00000000	2.61421351	2.61421351	0.80000000	0.70000000	0.00000000	0.79788456	73.30000000	56.60000000	80.70000000	79.40000000	73.30000000
41	208.00000000	628.50000000	20.80000000	62.90000000	2.45000000	2.00000000	1.50000000	140.29000000	6.07695520	11.05174608	1.90000000	1.60000000	2.00000000	1.76619277	179.40000000	148.10000000	188.90000000	212.80000000	179.40000000
42	240.00000000	570.00000000	24.00000000	57.00000000	0.77000000	1.30000000	0.80000000	25.78000000	3.46274161	6.69118043	1.10000000	0.80000000	1.30000000	0.99014870	150.00000000	111.60000000	163.10000000	182.80000000	150.00000000
43	799.00000000	636.00000000	79.90000000	63.60000000	0.36000000	0.70000000	0.50000000	45.00000000	2.21421351	3.79613689	0.70000000	0.60000000	0.70000000	0.67702750	71.50000000	54.60000000	77.50000000	85.20000000	71.60000000
44	1042.50000000	778.50000000	104.20000000	77.90000000	0.40000000	0.70000000	0.70000000	64.62000000	2.33137083	4.39822972	0.70000000	0.70000000	0.70000000	0.71364965	62.70000000	47.60000000	67.50000000	77.70000000	62.80000000
45	549.50000000	492.50000000	55.00000000	49.20000000	0.33000000	0.70000000	0.40000000	13.30000000	2.21421351	3.52031622	0.70000000	0.60000000	0.70000000	0.64820448	81.30000000	64.00000000	87.40000000	95.00000000	81.30000000
46	438.50000000	280.50000000	43.90000000	28.10000000	1.02000000	1.40000000	1.10000000	80.55000000	3.97989894	7.88228151	1.20000000	1.20000000	1.40000000	1.13960710	104.90000000	93.70000000	112.60000000	94.70000000	104.90000000
47	706.00000000	238.00000000	70.60000000	23.80000000	0.35000000	0.70000000	0.50000000	30.35000000	2.21421351	3.79613689	0.60000000	0.60000000	0.70000000	0.66755812	63.20000000	50.20000000	66.90000000	77.40000000	63.10000000

#8
liczenie
obiektów (w)	udział punktów	pole obrazu(mm²)
	48	100.00	12288.0000
nr.	x(pix.):	y(pix.):	x(mm):	y(mm):	powierzchnia:(mm²)	długość:(mm)	szerokość:(mm)	kąt:(°)	obwód:(mm)	obwód C.:(mm)	średnica Fereta H(mm)	średnica Fereta V(mm)	średn. Martina:(mm)	średn. sitowa:(mm)	średnia jaskrawość	R	G	B	Y
1	753.00000000	98.00000000	75.30000000	9.80000000	0.42000000	0.90000000	0.70000000	35.77000000	2.47279217	5.04620245	0.80000000	0.60000000	0.90000000	0.72690743	95.90000000	66.60000000	104.00000000	130.80000000	95.90000000
2	979.50000000	856.00000000	98.00000000	85.60000000	0.37000000	0.70000000	0.70000000	118.27000000	2.33137082	4.39822972	0.70000000	0.70000000	0.70000000	0.68636625	74.60000000	50.90000000	80.60000000	105.60000000	74.60000000
3	657.50000000	225.50000000	65.80000000	22.60000000	0.49000000	0.90000000	0.20000000	6.31000000	2.61421351	3.81553916	0.80000000	0.70000000	0.90000000	0.78986542	138.80000000	101.90000000	151.90000000	168.20000000	138.80000000
4	1253.50000000	96.50000000	125.40000000	9.70000000	0.55000000	1.00000000	0.60000000	100.19000000	2.78994948	5.10539977	0.90000000	0.70000000	1.00000000	0.83301594	90.00000000	60.10000000	97.70000000	129.00000000	90.00000000
5	79.00000000	282.00000000	7.90000000	28.20000000	0.37000000	0.70000000	0.70000000	151.73000000	2.33137082	4.39822972	0.70000000	0.70000000	0.70000000	0.68636625	78.70000000	57.40000000	84.90000000	102.80000000	78.70000000
6	960.50000000	952.50000000	96.10000000	95.20000000	0.35000000	0.70000000	0.40000000	100.09000000	2.18994948	3.52031622	0.70000000	0.60000000	0.70000000	0.66277269	87.10000000	58.50000000	94.80000000	123.20000000	87.20000000
7	95.50000000	314.00000000	9.60000000	31.40000000	0.47000000	0.90000000	0.80000000	25.30000000	2.58994948	5.34532850	0.80000000	0.70000000	0.90000000	0.76945201	119.90000000	83.60000000	131.30000000	155.90000000	119.90000000
8	379.00000000	431.50000000	37.90000000	43.20000000	0.62000000	0.90000000	0.80000000	132.92000000	3.03847759	5.34532850	0.80000000	0.80000000	0.90000000	0.88489678	140.30000000	104.20000000	153.50000000	167.10000000	140.30000000
9	1242.50000000	426.00000000	124.20000000	42.60000000	0.57000000	1.00000000	0.80000000	148.54000000	2.89705622	5.67233358	0.80000000	0.80000000	1.00000000	0.85190759	125.70000000	84.30000000	139.60000000	163.20000000	125.80000000
10	1151.50000000	143.50000000	115.20000000	14.40000000	0.81000000	1.10000000	0.80000000	80.89000000	3.57989894	6.00628745	1.10000000	0.90000000	1.10000000	1.01554125	95.70000000	63.20000000	105.20000000	132.20000000	95.70000000
11	16.00000000	544.00000000	1.60000000	54.40000000	0.43000000	0.90000000	0.70000000	94.60000000	2.49705622	5.04620245	0.70000000	0.70000000	0.90000000	0.73992770	95.20000000	68.40000000	103.20000000	124.40000000	95.20000000
12	1257.00000000	396.00000000	125.70000000	39.60000000	0.57000000	1.00000000	0.60000000	10.29000000	2.87279217	5.10539977	1.00000000	0.70000000	1.00000000	0.84816292	109.00000000	71.70000000	120.40000000	147.70000000	109.00000000
13	1186.50000000	263.00000000	118.70000000	26.30000000	0.68000000	1.20000000	0.30000000	19.90000000	3.27279218	5.14705178	1.20000000	0.70000000	1.20000000	0.92705808	149.60000000	109.40000000	163.60000000	183.30000000	149.60000000
14	1258.00000000	516.50000000	125.80000000	51.70000000	0.40000000	0.70000000	0.60000000	92.07000000	2.47279217	4.09011421	0.70000000	0.70000000	0.70000000	0.70917531	112.20000000	77.90000000	122.50000000	149.50000000	112.20000000
15	1080.00000000	65.00000000	108.00000000	6.50000000	0.66000000	1.10000000	0.70000000	92.79000000	3.21421353	5.72489813	1.10000000	0.80000000	1.10000000	0.91669957	126.40000000	88.50000000	139.10000000	161.00000000	126.40000000
16	950.50000000	815.00000000	95.10000000	81.50000000	0.93000000	1.50000000	0.40000000	156.87000000	3.81421353	6.48069397	1.30000000	0.90000000	1.50000000	1.08816946	143.20000000	104.00000000	156.60000000	177.50000000	143.20000000
17	1017.00000000	952.50000000	101.70000000	95.20000000	0.51000000	0.90000000	0.90000000	154.05000000	2.98994945	5.65486678	1.10000000	0.60000000	0.90000000	0.80186406	121.40000000	85.20000000	131.70000000	163.40000000	121.40000000
18	261.50000000	55.00000000	26.20000000	5.50000000	0.43000000	0.90000000	0.40000000	111.51000000	2.61421355	4.23655985	0.80000000	0.70000000	0.90000000	0.73992770	129.40000000	93.30000000	141.80000000	160.70000000	129.40000000
19	214.50000000	450.00000000	21.50000000	45.00000000	0.75000000	1.00000000	0.80000000	138.62000000	3.37989893	5.67233358	1.10000000	0.90000000	1.00000000	0.97720502	141.60000000	101.10000000	156.40000000	172.20000000	141.60000000
20	439.00000000	827.50000000	43.90000000	82.80000000	0.69000000	1.10000000	0.50000000	129.57000000	3.17989892	5.20487381	1.00000000	0.80000000	1.10000000	0.93730213	136.70000000	98.90000000	149.90000000	167.80000000	136.70000000
21	1121.00000000	602.00000000	112.10000000	60.20000000	0.79000000	1.50000000	0.50000000	29.14000000	3.66274167	6.68244639	1.30000000	0.80000000	1.50000000	1.00292534	134.60000000	94.90000000	148.00000000	169.30000000	134.60000000
22	413.50000000	894.50000000	41.40000000	89.50000000	0.46000000	0.80000000	0.70000000	90.00000000	2.53137083	4.71762642	0.80000000	0.70000000	0.80000000	0.76530399	104.70000000	74.00000000	114.40000000	135.30000000	104.70000000
23	1229.50000000	584.50000000	123.00000000	58.50000000	1.03000000	1.70000000	0.80000000	44.97000000	4.32132027	8.11058223	1.70000000	0.90000000	1.70000000	1.14239684	133.70000000	92.00000000	147.20000000	174.00000000	133.70000000
24	73.00000000	350.50000000	7.30000000	35.10000000	0.95000000	1.50000000	0.50000000	14.47000000	4.09705625	6.68244639	1.60000000	0.80000000	1.50000000	1.09980797	143.20000000	99.70000000	158.40000000	179.10000000	143.20000000
25	256.00000000	302.50000000	25.60000000	30.20000000	0.76000000	1.10000000	0.40000000	133.07000000	3.40416298	4.97265269	1.10000000	0.80000000	1.10000000	0.98045696	126.10000000	91.30000000	138.10000000	155.50000000	126.10000000
26	878.50000000	324.50000000	87.90000000	32.50000000	0.28000000	0.70000000	0.60000000	157.46000000	2.07279218	4.09011421	0.60000000	0.60000000	0.70000000	0.59172703	105.80000000	72.80000000	115.10000000	144.80000000	105.80000000
27	368.00000000	182.50000000	36.80000000	18.20000000	1.30000000	1.50000000	1.00000000	6.78000000	4.46274165	7.93271979	1.50000000	1.10000000	1.50000000	1.28655020	148.80000000	105.30000000	164.00000000	184.90000000	148.80000000
28	729.00000000	223.00000000	72.90000000	22.30000000	0.75000000	1.20000000	1.00000000	23.14000000	3.29705623	6.92579120	1.10000000	0.90000000	1.20000000	0.97720502	165.80000000	132.30000000	177.70000000	192.80000000	165.80000000
29	862.50000000	93.00000000	86.20000000	9.30000000	0.73000000	1.40000000	0.20000000	62.23000000	3.52132033	5.76281488	1.30000000	0.70000000	1.40000000	0.96078024	143.00000000	101.50000000	157.50000000	178.00000000	143.10000000
30	585.00000000	109.50000000	58.50000000	11.00000000	0.71000000	1.10000000	0.90000000	113.08000000	3.17989894	6.29890311	1.00000000	0.80000000	1.10000000	0.95078919	89.20000000	59.60000000	97.20000000	125.60000000	89.20000000
31	544.50000000	34.00000000	54.50000000	3.40000000	0.71000000	1.10000000	0.80000000	118.17000000	3.15563487	6.00628745	1.00000000	0.90000000	1.10000000	0.94743542	158.10000000	121.40000000	171.60000000	184.70000000	158.10000000
32	1192.00000000	729.00000000	119.20000000	72.90000000	0.36000000	0.90000000	0.70000000	112.24000000	2.35563488	5.04620245	0.70000000	0.60000000	0.90000000	0.67230948	60.60000000	40.70000000	64.00000000	95.30000000	60.60000000
33	980.00000000	308.00000000	98.00000000	30.80000000	0.32000000	0.70000000	0.60000000	15.96000000	2.18994948	4.09011421	0.70000000	0.60000000	0.70000000	0.63330124	74.50000000	51.90000000	81.30000000	99.40000000	74.50000000
34	778.00000000	115.50000000	77.80000000	11.60000000	0.23000000	0.50000000	0.50000000	0.00000000	1.76568542	3.14159265	0.50000000	0.50000000	0.50000000	0.54115164	87.30000000	59.80000000	95.10000000	119.70000000	87.40000000
35	416.50000000	435.00000000	41.70000000	43.50000000	0.83000000	1.60000000	0.30000000	53.80000000	3.88700575	6.69101697	1.50000000	0.70000000	1.60000000	1.02490128	110.40000000	77.10000000	120.50000000	146.10000000	110.40000000
36	426.50000000	513.00000000	42.70000000	51.30000000	0.40000000	0.70000000	0.80000000	124.71000000	2.41421354	4.71762642	0.80000000	0.60000000	0.70000000	0.71364965	71.40000000	53.10000000	76.40000000	93.40000000	71.40000000
37	195.50000000	936.00000000	19.60000000	93.60000000	0.37000000	0.80000000	0.50000000	88.03000000	2.35563488	4.13862761	0.70000000	0.60000000	0.80000000	0.68171287	68.00000000	49.30000000	73.20000000	90.40000000	68.00000000
38	549.50000000	141.00000000	55.00000000	14.10000000	1.74000000	1.90000000	1.30000000	33.32000000	5.45269111	10.14164966	1.80000000	1.30000000	1.90000000	1.48629425	170.90000000	134.80000000	181.80000000	209.80000000	170.90000000
39	1139.00000000	233.50000000	113.90000000	23.40000000	1.20000000	1.70000000	0.80000000	125.78000000	4.68700573	8.11058223	1.60000000	1.00000000	1.70000000	1.23349960	136.60000000	94.00000000	150.90000000	174.90000000	136.60000000
40	586.50000000	397.00000000	58.70000000	39.70000000	8.37000000	7.70000000	4.60000000	75.63000000	26.71787145	39.25769767	7.90000000	4.50000000	7.70000000	3.26353318	117.90000000	80.40000000	129.20000000	158.20000000	117.90000000
41	17.50000000	926.50000000	1.80000000	92.70000000	2.11000000	2.70000000	1.00000000	24.46000000	6.51126980	12.24591278	2.60000000	1.00000000	2.70000000	1.63906542	181.00000000	141.30000000	195.30000000	211.70000000	181.00000000
42	340.50000000	298.00000000	34.10000000	29.80000000	0.47000000	1.10000000	0.80000000	103.21000000	3.28700573	6.00628745	0.80000000	0.80000000	1.10000000	0.76945201	62.60000000	42.80000000	66.50000000	95.00000000	62.60000000
43	453.50000000	448.00000000	45.40000000	44.80000000	0.42000000	0.80000000	0.70000000	56.14000000	2.38994948	4.71762642	0.70000000	0.70000000	0.80000000	0.72690743	62.70000000	46.90000000	66.90000000	81.90000000	62.60000000
44	667.50000000	7.00000000	66.80000000	0.70000000	0.13000000	0.70000000	0.10000000	90.00000000	1.68284271	2.88140744	0.70000000	0.20000000	0.70000000	0.40684289	138.90000000	101.60000000	151.10000000	174.00000000	138.90000000
45	570.50000000	124.50000000	57.10000000	12.50000000	0.38000000	0.80000000	0.50000000	45.00000000	2.27279216	4.13862761	0.80000000	0.60000000	0.80000000	0.69098830	69.10000000	49.60000000	73.60000000	96.80000000	69.10000000
46	1205.00000000	817.50000000	120.50000000	81.80000000	0.38000000	0.70000000	0.70000000	30.69000000	2.33137083	4.39822972	0.70000000	0.70000000	0.70000000	0.69557963	53.20000000	35.80000000	56.80000000	79.90000000	53.20000000
47	751.00000000	954.00000000	75.10000000	95.40000000	0.14000000	0.80000000	0.10000000	82.98000000	1.82426406	3.27447660	0.80000000	0.20000000	0.80000000	0.41459298	128.60000000	92.30000000	138.20000000	173.70000000	128.50000000
48	364.50000000	678.50000000	36.50000000	67.90000000	0.39000000	0.80000000	0.60000000	35.10000000	2.33137082	4.42069843	0.70000000	0.70000000	0.80000000	0.70467256	62.30000000	46.40000000	66.70000000	81.20000000	62.30000000

#9
liczenie
obiektów (w)	udział punktów	pole obrazu(mm²)
	47	100.00	12288.0000
nr.	x(pix.):	y(pix.):	x(mm):	y(mm):	powierzchnia:(mm²)	długość:(mm)	szerokość:(mm)	kąt:(°)	obwód:(mm)	obwód C.:(mm)	średnica Fereta H(mm)	średnica Fereta V(mm)	średn. Martina:(mm)	średn. sitowa:(mm)	średnia jaskrawość	R	G	B	Y
1	1202.00000000	768.00000000	120.20000000	76.80000000	0.52000000	1.00000000	0.70000000	24.24000000	2.67279216	5.38236898	0.90000000	0.70000000	1.00000000	0.80976439	121.90000000	88.40000000	134.10000000	147.20000000	121.90000000
2	632.00000000	194.00000000	63.20000000	19.40000000	0.42000000	0.90000000	0.70000000	76.99000000	2.63847759	5.04620245	0.80000000	0.70000000	0.90000000	0.72690743	87.50000000	59.70000000	94.80000000	123.00000000	87.50000000
3	785.50000000	224.00000000	78.60000000	22.40000000	0.24000000	0.60000000	0.50000000	164.27000000	1.84852812	3.46289560	0.60000000	0.50000000	0.60000000	0.55279064	100.80000000	77.10000000	108.70000000	122.50000000	100.80000000
4	339.50000000	406.00000000	34.00000000	40.60000000	0.76000000	1.30000000	0.70000000	179.76000000	3.61421353	6.42537074	1.30000000	0.70000000	1.30000000	0.98369815	149.00000000	109.00000000	163.60000000	179.10000000	149.00000000
5	1016.00000000	120.00000000	101.60000000	12.00000000	0.55000000	0.90000000	0.60000000	91.23000000	2.78994946	4.75963188	0.90000000	0.70000000	0.90000000	0.83301594	125.20000000	90.70000000	137.00000000	155.30000000	125.20000000
6	296.50000000	508.00000000	29.70000000	50.80000000	0.59000000	1.00000000	0.50000000	62.24000000	2.89705625	4.84422411	0.90000000	0.80000000	1.00000000	0.86672448	136.30000000	100.80000000	148.90000000	164.60000000	136.30000000
7	65.50000000	208.00000000	6.60000000	20.80000000	0.49000000	0.90000000	0.80000000	165.74000000	2.69705623	5.34532850	0.80000000	0.70000000	0.90000000	0.78986542	147.20000000	110.80000000	160.70000000	173.20000000	147.20000000
8	400.00000000	461.50000000	40.00000000	46.20000000	0.78000000	1.20000000	0.80000000	145.94000000	3.66274165	6.34617584	1.20000000	0.80000000	1.20000000	0.99655750	164.20000000	129.60000000	176.00000000	193.40000000	164.10000000
9	624.00000000	32.50000000	62.40000000	3.20000000	0.47000000	0.90000000	0.20000000	55.72000000	2.61421351	3.81553916	0.90000000	0.60000000	0.90000000	0.77357778	137.60000000	103.40000000	150.20000000	163.10000000	137.70000000
10	456.00000000	166.50000000	45.60000000	16.70000000	0.53000000	1.10000000	0.70000000	1.53000000	2.83847759	5.72489813	0.90000000	0.70000000	1.10000000	0.81758838	141.90000000	105.10000000	155.70000000	167.50000000	141.90000000
11	960.00000000	522.50000000	96.00000000	52.20000000	1.39000000	1.70000000	1.00000000	53.57000000	4.72132027	8.62544451	1.70000000	1.20000000	1.70000000	1.32794457	166.30000000	128.40000000	179.00000000	200.20000000	166.30000000
12	367.50000000	40.00000000	36.80000000	4.00000000	0.54000000	0.90000000	0.80000000	8.53000000	2.89705625	5.34532850	0.90000000	0.80000000	0.90000000	0.82918596	148.80000000	113.00000000	161.90000000	175.40000000	148.80000000
13	648.00000000	529.50000000	64.80000000	53.00000000	0.91000000	1.30000000	0.80000000	142.12000000	3.88700572	6.69118043	1.30000000	0.90000000	1.30000000	1.07344389	152.70000000	114.50000000	166.10000000	184.00000000	152.70000000
14	65.50000000	157.50000000	6.60000000	15.80000000	0.89000000	1.30000000	0.80000000	174.64000000	3.94558436	6.69118043	1.20000000	1.10000000	1.30000000	1.06451078	145.00000000	109.80000000	157.50000000	172.60000000	145.00000000
15	327.50000000	177.50000000	32.80000000	17.80000000	1.02000000	1.30000000	0.90000000	65.85000000	4.20416299	6.96874271	1.30000000	1.10000000	1.30000000	1.13681051	145.00000000	109.40000000	156.40000000	180.00000000	145.00000000
16	1223.50000000	487.00000000	122.40000000	48.70000000	0.92000000	1.30000000	1.00000000	16.36000000	3.86274166	7.25642889	1.10000000	1.00000000	1.30000000	1.08230328	150.10000000	110.00000000	164.10000000	183.30000000	150.10000000
17	843.00000000	401.00000000	84.30000000	40.10000000	1.00000000	1.60000000	0.90000000	101.79000000	4.17989893	8.00868922	1.50000000	0.90000000	1.60000000	1.12837917	146.20000000	108.40000000	159.40000000	177.70000000	146.30000000
18	100.50000000	643.50000000	10.10000000	64.40000000	0.95000000	1.50000000	0.90000000	33.23000000	4.03847760	7.65809966	1.50000000	0.90000000	1.50000000	1.09690992	152.80000000	110.30000000	167.90000000	186.50000000	152.80000000
19	15.50000000	208.50000000	1.60000000	20.90000000	0.42000000	0.80000000	0.40000000	47.74000000	2.55563488	3.87537929	0.80000000	0.70000000	0.80000000	0.72690743	78.50000000	58.20000000	83.70000000	105.40000000	78.50000000
20	680.00000000	697.00000000	68.00000000	69.70000000	1.30000000	1.70000000	1.10000000	75.98000000	4.82842705	8.89773238	1.60000000	1.10000000	1.70000000	1.28655020	152.30000000	118.20000000	163.20000000	186.00000000	152.30000000
21	426.00000000	169.50000000	42.60000000	16.90000000	0.62000000	1.00000000	0.70000000	45.00000000	2.95563488	5.38236898	1.00000000	0.80000000	1.00000000	0.88489678	151.60000000	115.90000000	163.80000000	182.00000000	151.50000000
22	594.50000000	529.00000000	59.50000000	52.90000000	0.96000000	1.60000000	0.80000000	171.90000000	4.26274166	7.75075857	1.60000000	0.90000000	1.60000000	1.10558128	156.70000000	116.90000000	170.90000000	187.40000000	156.60000000
23	240.00000000	560.00000000	24.00000000	56.00000000	0.50000000	0.00000000	0.00000000	0.00000000	2.61421351	2.61421351	0.80000000	0.70000000	0.00000000	0.79788456	159.70000000	124.60000000	172.30000000	186.50000000	159.70000000
24	1035.00000000	795.00000000	103.50000000	79.50000000	0.45000000	0.90000000	0.60000000	34.73000000	2.63847756	4.75963188	0.80000000	0.60000000	0.90000000	0.75272279	120.10000000	88.60000000	131.00000000	146.70000000	120.10000000
25	464.50000000	780.00000000	46.50000000	78.00000000	1.35000000	1.60000000	0.50000000	36.37000000	4.60416300	7.05824197	1.60000000	1.10000000	1.60000000	1.30862798	150.30000000	111.80000000	163.20000000	185.00000000	150.30000000
26	717.50000000	516.50000000	71.80000000	51.70000000	1.41000000	1.70000000	1.00000000	44.53000000	5.11126977	8.62544451	1.70000000	1.10000000	1.70000000	1.33987602	155.80000000	117.90000000	168.20000000	191.20000000	155.80000000
27	822.50000000	723.50000000	82.20000000	72.40000000	0.79000000	1.30000000	0.80000000	163.67000000	3.69705625	6.69118043	1.30000000	0.90000000	1.30000000	1.00292534	148.30000000	110.30000000	161.60000000	179.50000000	148.30000000
28	646.00000000	156.00000000	64.60000000	15.60000000	1.94000000	2.40000000	0.90000000	172.45000000	5.92132027	10.91005871	2.40000000	1.10000000	2.40000000	1.56962369	158.30000000	114.50000000	173.80000000	193.80000000	158.40000000
29	391.50000000	835.00000000	39.20000000	83.50000000	1.15000000	1.40000000	1.10000000	135.17000000	4.46274165	7.88228151	1.30000000	1.10000000	1.40000000	1.21005185	153.20000000	114.90000000	166.50000000	185.30000000	153.20000000
30	197.50000000	339.00000000	19.80000000	33.90000000	0.82000000	1.30000000	0.20000000	103.16000000	3.46274161	5.37091913	1.10000000	0.80000000	1.30000000	1.02179079	157.90000000	121.30000000	171.10000000	186.10000000	157.90000000
31	1013.00000000	917.00000000	101.30000000	91.70000000	0.49000000	0.90000000	0.20000000	6.31000000	2.61421351	3.81553916	0.80000000	0.70000000	0.90000000	0.78986542	136.00000000	102.70000000	147.60000000	163.90000000	136.00000000
32	742.00000000	348.00000000	74.20000000	34.80000000	0.47000000	0.90000000	0.30000000	78.83000000	2.69705622	4.00946783	0.80000000	0.70000000	0.90000000	0.77357778	133.00000000	99.60000000	144.90000000	159.10000000	133.00000000
33	647.50000000	293.00000000	64.80000000	29.30000000	0.27000000	0.70000000	0.50000000	94.47000000	1.98994946	3.79613689	0.70000000	0.50000000	0.70000000	0.58086873	87.00000000	63.80000000	94.40000000	109.60000000	87.00000000
34	165.00000000	670.50000000	16.50000000	67.00000000	1.38000000	1.90000000	0.90000000	39.57000000	5.11126975	9.07926999	1.90000000	1.00000000	1.90000000	1.32554539	154.70000000	112.60000000	169.50000000	188.70000000	154.70000000
35	1269.50000000	192.50000000	127.00000000	19.20000000	1.07000000	1.80000000	0.10000000	27.20000000	4.32132031	7.24168763	1.70000000	0.90000000	1.80000000	1.16447418	148.60000000	104.90000000	163.20000000	187.80000000	148.60000000
36	218.50000000	242.50000000	21.90000000	24.20000000	2.29000000	2.30000000	1.10000000	135.42000000	6.01837666	11.01672882	2.30000000	1.10000000	2.30000000	1.70568237	179.70000000	143.70000000	192.20000000	209.70000000	179.70000000
37	779.00000000	100.00000000	77.90000000	10.00000000	0.36000000	0.80000000	0.60000000	33.88000000	2.33137083	4.42069843	0.70000000	0.70000000	0.80000000	0.67702750	67.00000000	50.10000000	72.40000000	83.90000000	67.00000000
38	443.50000000	48.00000000	44.40000000	4.80000000	1.05000000	1.50000000	1.00000000	51.40000000	4.65269114	7.93271979	1.40000000	1.00000000	1.50000000	1.15348833	76.10000000	56.50000000	82.20000000	96.70000000	76.20000000
39	6.50000000	157.00000000	0.70000000	15.70000000	0.44000000	1.30000000	0.10000000	13.37000000	3.07279218	5.25307590	1.30000000	0.50000000	1.30000000	0.74421717	72.50000000	46.60000000	76.90000000	118.20000000	72.50000000
40	553.00000000	951.00000000	55.30000000	95.10000000	0.59000000	1.20000000	0.10000000	37.40000000	3.13137084	4.85621764	1.00000000	0.80000000	1.20000000	0.86672448	131.70000000	92.10000000	145.00000000	166.90000000	131.70000000
41	782.50000000	433.50000000	78.20000000	43.40000000	0.41000000	0.70000000	0.70000000	176.59000000	2.38994946	4.39822972	0.70000000	0.70000000	0.70000000	0.71809610	64.90000000	51.10000000	69.80000000	75.20000000	64.80000000
42	815.50000000	606.50000000	81.60000000	60.70000000	0.43000000	0.70000000	0.80000000	10.88000000	2.63847759	4.71762642	0.80000000	0.70000000	0.70000000	0.73561322	70.50000000	56.70000000	76.20000000	77.40000000	70.50000000
43	191.50000000	59.00000000	19.20000000	5.90000000	0.81000000	1.40000000	0.70000000	110.01000000	3.75563489	6.78191375	1.40000000	0.80000000	1.40000000	1.01240201	68.10000000	55.60000000	73.30000000	74.70000000	68.10000000
44	488.00000000	658.50000000	48.80000000	65.90000000	1.42000000	1.60000000	1.20000000	142.88000000	4.52132028	8.84139686	1.40000000	1.30000000	1.60000000	1.34224959	110.70000000	93.00000000	119.50000000	112.10000000	110.80000000
45	381.50000000	558.00000000	38.10000000	55.80000000	2.03000000	4.00000000	0.70000000	131.60000000	9.50538223	16.65000590	4.00000000	0.80000000	4.00000000	1.60769284	96.90000000	69.60000000	106.10000000	121.80000000	96.90000000
46	1122.50000000	738.00000000	112.20000000	73.80000000	1.30000000	1.70000000	0.90000000	8.47000000	4.80416301	8.36264176	1.70000000	1.10000000	1.70000000	1.28407368	96.30000000	77.00000000	105.80000000	98.50000000	96.40000000
47	1266.50000000	333.50000000	126.70000000	33.40000000	1.31000000	2.70000000	0.60000000	54.39000000	6.43259004	11.44661747	2.70000000	0.70000000	2.70000000	1.28902196	57.20000000	42.00000000	62.10000000	71.50000000	57.20000000

#10
liczenie
obiektów (w)	udział punktów	pole obrazu(mm²)
	50	100.00	12288.0000
nr.	x(pix.):	y(pix.):	x(mm):	y(mm):	powierzchnia:(mm²)	długość:(mm)	szerokość:(mm)	kąt:(°)	obwód:(mm)	obwód C.:(mm)	średnica Fereta H(mm)	średnica Fereta V(mm)	średn. Martina:(mm)	średn. sitowa:(mm)	średnia jaskrawość	R	G	B	Y
1	586.50000000	432.00000000	58.70000000	43.20000000	0.40000000	0.70000000	0.70000000	121.39000000	2.41421351	4.39822972	0.70000000	0.70000000	0.70000000	0.71364965	135.40000000	97.60000000	148.10000000	169.30000000	135.40000000
2	451.00000000	639.00000000	45.10000000	63.90000000	0.39000000	0.70000000	0.70000000	0.00000000	2.33137081	4.39822972	0.70000000	0.70000000	0.70000000	0.70467256	122.40000000	85.80000000	134.20000000	157.90000000	122.40000000
3	614.50000000	750.50000000	61.50000000	75.00000000	1.10000000	1.40000000	0.80000000	177.54000000	4.17989893	7.04063244	1.30000000	1.20000000	1.40000000	1.18345405	154.10000000	117.70000000	165.70000000	190.00000000	154.10000000
4	881.50000000	159.00000000	88.20000000	15.90000000	0.58000000	1.10000000	0.60000000	45.72000000	2.89705626	5.45684568	1.10000000	0.60000000	1.10000000	0.85934797	137.10000000	97.00000000	151.00000000	170.50000000	137.10000000
5	1117.00000000	85.50000000	111.70000000	8.60000000	0.58000000	1.10000000	0.30000000	160.67000000	2.93137083	4.76528499	1.00000000	0.70000000	1.10000000	0.85934797	106.30000000	70.40000000	116.30000000	149.10000000	106.30000000
6	36.50000000	541.50000000	3.70000000	54.20000000	0.70000000	1.10000000	0.80000000	130.22000000	3.29705622	6.00628745	1.10000000	0.80000000	1.10000000	0.94406974	144.60000000	106.20000000	158.10000000	176.40000000	144.60000000
7	781.00000000	57.00000000	78.10000000	5.70000000	0.76000000	1.50000000	0.80000000	30.11000000	3.80416298	7.39397902	1.40000000	0.80000000	1.50000000	0.98045696	146.80000000	102.60000000	162.20000000	184.00000000	146.90000000
8	1091.00000000	368.00000000	109.10000000	36.80000000	0.48000000	0.90000000	0.70000000	52.96000000	2.67279217	5.04620245	0.90000000	0.70000000	0.90000000	0.77768167	141.10000000	101.00000000	155.20000000	173.50000000	141.10000000
9	127.50000000	613.00000000	12.80000000	61.30000000	0.95000000	1.40000000	0.90000000	171.30000000	4.06274164	7.31128766	1.30000000	1.00000000	1.40000000	1.09980797	156.40000000	112.40000000	172.10000000	191.10000000	156.40000000
10	975.00000000	499.50000000	97.50000000	50.00000000	1.23000000	1.80000000	0.30000000	54.43000000	4.48700577	7.47000920	1.80000000	0.80000000	1.80000000	1.24888688	172.10000000	132.90000000	185.40000000	206.90000000	172.10000000
11	392.00000000	134.50000000	39.20000000	13.50000000	0.35000000	0.70000000	0.70000000	10.39000000	2.41421353	4.39822972	0.70000000	0.70000000	0.70000000	0.66755812	116.70000000	81.70000000	127.40000000	153.30000000	116.70000000
12	707.00000000	834.00000000	70.70000000	83.40000000	0.67000000	1.00000000	0.50000000	80.39000000	3.17989894	4.84422411	1.00000000	0.80000000	1.00000000	0.92361815	157.30000000	123.20000000	168.80000000	187.50000000	157.30000000
13	561.50000000	809.00000000	56.20000000	80.90000000	0.98000000	1.40000000	0.80000000	120.55000000	4.11126978	7.04063244	1.40000000	0.90000000	1.40000000	1.11703839	151.70000000	115.90000000	164.00000000	182.00000000	151.70000000
14	490.00000000	498.50000000	49.00000000	49.90000000	0.42000000	0.70000000	0.60000000	108.84000000	2.47279217	4.09011421	0.80000000	0.70000000	0.70000000	0.72690743	120.50000000	86.60000000	132.20000000	149.20000000	120.50000000
15	298.00000000	188.50000000	29.80000000	18.90000000	0.91000000	1.50000000	0.80000000	155.70000000	3.81421353	7.39397902	1.30000000	0.90000000	1.50000000	1.07640512	147.70000000	107.50000000	161.80000000	180.90000000	147.80000000
16	897.00000000	624.50000000	89.70000000	62.50000000	0.72000000	1.10000000	0.70000000	95.75000000	3.27279218	5.72489813	1.10000000	0.80000000	1.10000000	0.95413116	158.70000000	120.70000000	171.80000000	190.70000000	158.70000000
17	1251.50000000	182.00000000	125.20000000	18.20000000	0.48000000	0.90000000	0.70000000	8.28000000	2.69705622	5.04620245	0.80000000	0.70000000	0.90000000	0.78176402	108.40000000	72.40000000	118.80000000	149.10000000	108.40000000
18	36.00000000	123.00000000	3.60000000	12.30000000	0.67000000	1.10000000	0.70000000	0.00000000	3.13137081	5.72489813	1.10000000	0.70000000	1.10000000	0.92361815	156.30000000	116.40000000	170.70000000	186.80000000	156.30000000
19	1005.50000000	593.00000000	100.60000000	59.30000000	0.54000000	1.00000000	0.70000000	69.00000000	2.87279218	5.38236898	0.90000000	0.80000000	1.00000000	0.82533821	135.10000000	95.70000000	148.90000000	168.00000000	135.10000000
20	1190.50000000	304.00000000	119.10000000	30.40000000	0.60000000	0.00000000	0.00000000	0.00000000	2.97989891	2.97989891	1.00000000	0.70000000	0.00000000	0.87403874	143.50000000	103.10000000	157.80000000	175.90000000	143.50000000
21	14.00000000	928.00000000	1.40000000	92.80000000	1.96000000	2.50000000	1.00000000	19.22000000	6.14558436	11.50655623	2.50000000	1.10000000	2.50000000	1.57973083	161.80000000	115.60000000	177.90000000	200.80000000	161.80000000
22	978.00000000	179.50000000	97.80000000	17.90000000	0.48000000	0.90000000	0.70000000	13.73000000	2.67279218	5.04620245	0.90000000	0.70000000	0.90000000	0.77768167	151.00000000	109.30000000	166.00000000	183.10000000	151.00000000
23	216.00000000	768.50000000	21.60000000	76.90000000	0.85000000	1.40000000	0.70000000	138.54000000	3.92132031	6.78191375	1.50000000	0.80000000	1.40000000	1.03724993	103.60000000	67.50000000	113.10000000	149.20000000	103.60000000
24	137.00000000	59.50000000	13.70000000	6.00000000	0.61000000	1.10000000	0.70000000	98.56000000	3.01421353	5.72489813	1.10000000	0.70000000	1.10000000	0.88129230	140.10000000	99.30000000	154.60000000	172.70000000	140.10000000
25	910.50000000	838.00000000	91.10000000	83.80000000	1.43000000	1.80000000	0.90000000	39.78000000	4.80416303	8.71960339	1.50000000	1.30000000	1.80000000	1.34698417	150.10000000	109.00000000	163.50000000	189.40000000	150.10000000
26	1055.00000000	46.00000000	105.50000000	4.60000000	1.17000000	1.60000000	0.90000000	131.29000000	4.42842704	8.00868922	1.60000000	1.00000000	1.60000000	1.22052868	149.20000000	109.50000000	162.80000000	183.20000000	149.20000000
27	714.00000000	292.50000000	71.40000000	29.20000000	1.10000000	1.80000000	0.60000000	18.97000000	4.68700570	8.01893567	1.80000000	0.90000000	1.80000000	1.18076132	156.10000000	113.90000000	171.10000000	189.80000000	156.10000000
28	163.00000000	150.00000000	16.30000000	15.00000000	0.53000000	0.80000000	0.80000000	126.22000000	2.86274167	5.02654825	0.80000000	0.80000000	0.80000000	0.82147243	144.80000000	104.90000000	159.30000000	174.80000000	144.80000000
29	331.50000000	951.50000000	33.10000000	95.20000000	0.34000000	0.60000000	0.70000000	129.81000000	2.29705623	4.09011421	0.70000000	0.60000000	0.60000000	0.65795246	129.50000000	94.00000000	142.20000000	157.90000000	129.60000000
30	304.00000000	319.50000000	30.40000000	32.00000000	0.68000000	1.10000000	0.90000000	39.96000000	3.13137083	6.29890311	0.90000000	0.90000000	1.10000000	0.93048530	164.80000000	130.00000000	176.30000000	197.20000000	164.80000000
31	822.50000000	677.50000000	82.20000000	67.80000000	1.21000000	1.70000000	0.30000000	31.11000000	4.68700569	7.08006247	1.70000000	1.00000000	1.70000000	1.23864993	173.20000000	132.80000000	187.40000000	206.40000000	173.20000000
32	763.50000000	881.50000000	76.40000000	88.20000000	1.22000000	1.80000000	0.90000000	73.06000000	4.94558433	8.71960339	1.80000000	1.00000000	1.80000000	1.24633553	170.80000000	129.90000000	185.00000000	204.60000000	170.80000000
33	1249.50000000	418.00000000	125.00000000	41.80000000	0.42000000	0.90000000	0.30000000	171.13000000	2.55563487	4.00946783	0.80000000	0.70000000	0.90000000	0.72690743	81.70000000	54.50000000	88.20000000	119.40000000	81.70000000
34	40.00000000	463.50000000	4.00000000	46.40000000	0.66000000	1.00000000	0.90000000	41.04000000	3.07279217	5.97316043	0.90000000	0.90000000	1.00000000	0.91322062	80.80000000	60.40000000	87.50000000	99.70000000	80.80000000
35	361.50000000	86.00000000	36.10000000	8.60000000	1.63000000	2.10000000	0.70000000	174.47000000	5.23847756	9.35542495	2.10000000	0.90000000	2.10000000	1.43840685	164.10000000	117.90000000	180.80000000	199.10000000	164.10000000
36	241.00000000	793.50000000	24.10000000	79.40000000	0.67000000	1.10000000	0.90000000	142.89000000	3.07279217	6.29890311	0.90000000	0.90000000	1.10000000	0.92016536	154.10000000	119.20000000	165.70000000	185.70000000	154.10000000
37	485.50000000	695.50000000	48.60000000	69.50000000	1.01000000	1.70000000	0.80000000	68.55000000	4.37989895	8.11058223	1.70000000	0.80000000	1.70000000	1.13400703	159.40000000	119.30000000	173.20000000	193.20000000	159.40000000
38	300.50000000	845.50000000	30.10000000	84.60000000	0.37000000	0.80000000	0.60000000	34.34000000	2.27279216	4.42069843	0.70000000	0.60000000	0.80000000	0.68171287	125.20000000	89.50000000	137.30000000	156.80000000	125.30000000
39	125.00000000	916.50000000	12.50000000	91.70000000	0.33000000	0.70000000	0.50000000	90.00000000	2.16568542	3.79613689	0.70000000	0.50000000	0.70000000	0.64820448	113.70000000	82.60000000	125.10000000	137.00000000	113.70000000
40	1186.00000000	797.50000000	118.60000000	79.80000000	0.23000000	0.50000000	0.50000000	0.00000000	1.76568542	3.14159265	0.50000000	0.50000000	0.50000000	0.54115164	96.80000000	68.60000000	105.30000000	127.20000000	96.80000000
41	687.00000000	161.50000000	68.70000000	16.20000000	0.29000000	0.70000000	0.50000000	70.83000000	2.04852812	3.79613689	0.70000000	0.50000000	0.70000000	0.60765078	72.60000000	51.30000000	79.00000000	96.20000000	72.70000000
42	24.00000000	9.50000000	2.40000000	1.00000000	0.65000000	1.30000000	0.40000000	91.43000000	3.27279217	5.72199943	1.30000000	0.60000000	1.30000000	0.90622266	141.10000000	100.70000000	154.40000000	178.50000000	141.10000000
43	110.00000000	183.50000000	11.00000000	18.40000000	1.09000000	1.40000000	1.10000000	159.86000000	4.17989894	7.88228151	1.30000000	1.10000000	1.40000000	1.17806244	84.90000000	63.10000000	92.50000000	103.10000000	84.90000000
44	202.50000000	626.00000000	20.20000000	62.60000000	0.68000000	1.10000000	0.80000000	146.82000000	3.26274164	6.00628745	1.10000000	0.80000000	1.10000000	0.93048530	141.30000000	104.40000000	153.90000000	173.20000000	141.30000000
45	617.00000000	536.00000000	61.70000000	53.60000000	1.59000000	2.00000000	1.00000000	141.68000000	5.91126976	9.68844822	2.00000000	1.20000000	2.00000000	1.42283199	96.60000000	68.90000000	105.30000000	124.20000000	96.60000000
46	110.50000000	941.50000000	11.10000000	94.20000000	0.33000000	0.70000000	0.60000000	81.53000000	2.18994948	4.09011421	0.70000000	0.60000000	0.70000000	0.64327510	71.10000000	53.00000000	77.20000000	87.60000000	71.10000000
47	214.50000000	467.50000000	21.50000000	46.80000000	0.99000000	1.60000000	0.90000000	40.58000000	5.21837653	8.00868922	1.60000000	0.80000000	1.60000000	1.11988435	102.20000000	81.00000000	110.00000000	117.00000000	102.10000000
48	1234.50000000	803.00000000	123.50000000	80.30000000	0.32000000	0.70000000	0.60000000	28.28000000	2.21421354	4.09011421	0.60000000	0.60000000	0.70000000	0.63830765	49.90000000	34.70000000	52.90000000	73.90000000	49.90000000
49	397.00000000	898.00000000	39.70000000	89.80000000	0.54000000	0.90000000	0.70000000	85.73000000	2.87279218	5.04620245	0.90000000	0.70000000	0.90000000	0.82533821	53.30000000	38.20000000	57.10000000	73.10000000	53.30000000
50	939.00000000	225.00000000	93.90000000	22.50000000	0.32000000	0.80000000	0.70000000	2.65000000	2.32132030	4.71762642	0.70000000	0.50000000	0.80000000	0.63330124	54.00000000	39.50000000	55.80000000	82.60000000	54.00000000
