
#1
liczenie
obiekt�w (w)	udzia� punkt�w	pole obrazu(mm�)	
   39	100.00	12288.0000
nr.	x(pix.):	y(pix.):	x(mm):	y(mm):	powierzchnia:(mm�)	d�ugo��:(mm)	szeroko��:(mm)	k�t:(�)	obw�d:(mm)	obw�d C.:(mm)	�rednica Fereta H(mm)	�rednica Fereta V(mm)	�redn. Martina:(mm)	�redn. sitowa:(mm)	�rednia jaskrawo��	R	G	B	Y	
1	  69	 951	6.90000000	95.1000000	0.94000000	1.38924440	0.80622577	149.74	3.67183506	3.53449816	1.30000000	1.20000000	1.20000000	0.84852814	224.8	102.1	147.8	173.6	136.3	
2	 905	 911	90.5000000	91.1000000	0.98000000	1.42126704	0.78102497	50.71	3.52571830	3.38804386	1.10000000	1.20000000	0.90000000	0.82462113	225.8	98.6	142.7	155.5	130.3	
3	 318	 909	31.8000000	90.9000000	0.16000000	0.44721360	0.31622777	26.57	1.12267728	1.10486272	0.50000000	0.40000000	0.50000000	0.30000000	201.3	84.7	110.3	129.5	104.2	
4	1147	 820	114.700000	82.0000000	0.31000000	0.70710678	0.42426407	45.00	1.60633242	1.60241522	0.60000000	0.60000000	0.60000000	0.44721360	220.4	94.5	137.9	144.0	124.9	
5	1111	 772	111.100000	77.2000000	1.01000000	1.20415946	0.98994949	131.63	3.51422956	3.42832096	1.10000000	1.20000000	1.00000000	1.10000000	231.7	102.2	152.4	166.6	138.3	
6	 791	 768	79.1000000	76.8000000	0.31000000	0.58309519	0.44721360	120.96	1.60979425	1.60979425	0.60000000	0.60000000	0.60000000	0.50000000	214.6	108.0	149.3	159.8	137.4	
7	1050	 648	105.000000	64.8000000	0.21000000	0.58309519	0.31622777	59.04	1.43890504	1.23983456	0.50000000	0.60000000	0.50000000	0.40000000	196.8	92.1	125.4	126.6	115.0	
8	 897	 629	89.7000000	62.9000000	1.30000000	1.74642492	0.80622577	13.24	4.36844492	4.22938358	1.80000000	1.00000000	1.80000000	0.90000000	232.0	93.5	135.1	148.3	123.5	
9	 976	 630	97.6000000	63.0000000	0.39000000	0.76157731	0.41231056	23.20	1.87986164	1.87594443	0.80000000	0.60000000	0.70000000	0.50000000	212.0	98.2	139.9	144.4	127.4	
10	 466	 623	46.6000000	62.3000000	0.69000000	1.20830460	0.63245553	24.44	2.89404096	2.88401337	1.20000000	0.80000000	1.00000000	0.70000000	226.7	111.0	158.2	170.9	144.8	
11	 387	 621	38.7000000	62.1000000	0.50000000	0.86023253	0.58309519	144.46	2.31038271	2.26737456	0.90000000	0.80000000	0.90000000	0.64031242	219.1	103.5	146.7	162.8	134.9	
12	 338	 577	33.8000000	57.7000000	1.15000000	1.25299641	0.98488578	61.39	3.53926555	3.48582187	1.20000000	1.20000000	1.20000000	1.10000000	230.8	111.3	153.9	168.6	142.1	
13	 999	 546	99.9000000	54.6000000	0.22000000	0.53851648	0.31622777	68.20	1.32912679	1.32912679	0.60000000	0.60000000	0.60000000	0.42426407	192.1	91.5	125.4	129.5	115.1	
14	1176	 533	117.600000	53.3000000	0.13000000	0.42426407	0.28284271	45.00	0.88929222	0.88929222	0.40000000	0.40000000	0.40000000	0.36055513	187.6	84.1	112.5	117.5	103.9	
15	 357	 481	35.7000000	48.1000000	0.24000000	0.53851648	0.30000000	21.80	1.42455231	1.42455231	0.60000000	0.50000000	0.60000000	0.40000000	208.8	94.5	128.0	143.7	119.2	
16	 709	 468	70.9000000	46.8000000	0.28000000	0.58309519	0.36055513	30.96	1.55859464	1.54078008	0.60000000	0.60000000	0.60000000	0.58309519	206.9	96.5	125.7	136.6	117.6	
17	 151	 437	15.1000000	43.7000000	0.67000000	1.08166538	0.58309519	56.31	3.00060445	2.88466493	1.00000000	1.10000000	0.90000000	0.67082039	220.5	99.5	146.2	169.0	134.1	
18	 516	 418	51.6000000	41.8000000	1.16000000	1.43178211	0.98488578	114.78	4.13115189	3.86648080	1.20000000	1.40000000	0.90000000	1.11803399	227.9	108.8	151.1	165.6	139.5	
19	 707	 368	70.7000000	36.8000000	0.42000000	0.89442719	0.44721360	26.57	2.02625341	2.00105982	0.90000000	0.60000000	0.80000000	0.50000000	216.7	115.0	158.6	170.5	146.2	
20	 800	 307	80.0000000	30.7000000	0.57000000	0.94339811	0.67082039	147.99	2.48351598	2.46570142	0.90000000	0.80000000	0.80000000	0.70000000	223.0	94.2	131.6	141.5	121.0	
21	 867	 287	86.7000000	28.7000000	1.29000000	1.56204994	1.00000000	39.81	4.11024268	3.92845946	1.40000000	1.20000000	1.40000000	1.08166538	232.2	100.4	142.1	156.3	130.6	
22	 468	 284	46.8000000	28.4000000	1.42000000	1.62788206	1.00498756	10.62	4.43507724	4.28949788	1.70000000	1.00000000	1.60000000	0.90000000	232.4	114.6	160.7	178.4	148.2	
23	 162	 273	16.2000000	27.3000000	0.78000000	1.20830460	0.72801099	24.44	3.06515846	2.99621310	1.20000000	0.80000000	1.20000000	0.70000000	228.9	96.6	137.5	158.4	127.0	
25	1003	 235	100.300000	23.5000000	0.42000000	0.80622577	0.53851648	119.74	2.10393320	2.05700784	0.70000000	0.80000000	0.70000000	0.60000000	212.8	106.3	149.9	164.6	137.8	
26	 273	 226	27.3000000	22.6000000	0.63000000	1.07703296	0.53851648	158.20	2.72991738	2.70080658	1.10000000	0.70000000	1.10000000	0.60000000	229.1	106.0	148.3	169.9	137.3	
27	 257	 175	25.7000000	17.5000000	1.68000000	2.36008474	0.86023253	126.38	5.98382021	5.41743153	1.80000000	2.00000000	0.90000000	0.86023253	229.0	101.8	147.2	167.4	135.2	
28	 135	 155	13.5000000	15.5000000	0.93000000	1.25299641	0.89442719	61.39	3.51975108	3.32373710	1.00000000	1.20000000	0.90000000	0.90000000	225.8	87.9	128.3	153.3	118.3	
29	1192	 124	119.200000	12.4000000	0.74000000	1.02956301	0.80622577	119.05	2.88884345	2.82579178	1.00000000	1.00000000	1.00000000	0.90000000	217.5	101.6	153.7	168.8	139.1	
30	 579	 107	57.9000000	10.7000000	1.01000000	1.47648231	0.67082039	28.30	3.62568095	3.58158391	1.40000000	1.20000000	1.30000000	0.80622577	224.8	106.5	151.5	171.7	139.5	
31	 718	  83	71.8000000	8.30000000	0.61000000	1.02956301	0.53851648	150.95	2.62603799	2.60375041	1.10000000	0.80000000	1.00000000	0.67082039	224.5	111.0	154.7	171.1	142.7	
32	1233	  39	123.300000	3.90000000	0.37000000	0.80622577	0.44721360	119.74	1.96989087	1.95207631	0.60000000	0.80000000	0.60000000	0.53851648	209.6	98.1	139.3	153.5	127.9	
33	1241	  14	124.100000	1.40000000	0.35000000	0.64031242	0.50000000	141.34	1.85039379	1.83257923	0.70000000	0.60000000	0.70000000	0.50000000	215.0	93.8	136.3	158.0	125.4	

#2
liczenie
obiekt�w (w)	udzia� punkt�w	pole obrazu(mm�)	
   38	100.00	12288.0000
nr.	x(pix.):	y(pix.):	x(mm):	y(mm):	powierzchnia:(mm�)	d�ugo��:(mm)	szeroko��:(mm)	k�t:(�)	obw�d:(mm)	obw�d C.:(mm)	�rednica Fereta H(mm)	�rednica Fereta V(mm)	�redn. Martina:(mm)	�redn. sitowa:(mm)	�rednia jaskrawo��	R	G	B	Y	
1	 509	 949	50.9000000	94.9000000	0.29000000	0.72111026	0.36055513	56.31	1.72912679	1.68611864	0.60000000	0.70000000	0.40000000	0.44721360	208.6	62.8	94.3	122.7	87.5	
2	  81	 933	8.10000000	93.3000000	0.65000000	1.08166538	0.72111026	146.31	2.62218960	2.58656048	1.00000000	0.80000000	1.00000000	0.70000000	226.9	89.7	138.9	180.7	128.0	
3	1139	 925	113.900000	92.5000000	0.48000000	0.89442719	0.41231056	63.43	2.50630096	2.36554154	0.80000000	0.90000000	0.70000000	0.53851648	218.5	85.7	136.6	177.6	125.1	
4	 556	 922	55.6000000	92.2000000	1.20000000	1.55241747	0.82462113	165.07	3.90442054	3.80622791	1.60000000	1.00000000	1.50000000	1.01980390	230.8	100.5	158.0	190.3	143.6	
5	 678	 909	67.8000000	90.9000000	0.12000000	0.36055513	0.14142136	146.31	1.08191319	0.99907048	0.40000000	0.40000000	0.30000000	0.28284271	184.9	64.7	88.9	120.8	84.7	
6	 809	 883	80.9000000	88.3000000	2.79000000	3.90512484	0.80622577	76.68	8.59771311	8.41339527	1.60000000	3.80000000	0.80000000	0.94868330	232.7	65.6	106.4	136.8	96.9	
7	1064	 828	106.400000	82.8000000	7.08000000	12.7236001	0.94868330	113.14	27.8825513	25.8479131	5.30000000	11.8000000	0.80000000	1.07703296	223.6	74.1	118.0	154.3	108.2	
8	 239	 860	23.9000000	86.0000000	0.54000000	0.94339811	0.63245553	147.99	2.40459047	2.39721144	0.90000000	0.70000000	0.90000000	0.60000000	219.2	91.2	142.9	180.4	130.8	
9	   8	 803	0.80000000	80.3000000	0.52000000	0.82462113	0.70710678	165.96	2.30646550	2.27970489	0.90000000	0.80000000	0.80000000	0.70000000	217.0	83.3	128.0	165.9	118.1	
10	1085	 733	108.500000	73.3000000	3.02000000	7.23394775	0.80000000	84.45	15.0986380	14.8184843	1.10000000	7.30000000	0.40000000	0.90553851	221.2	65.2	103.5	134.1	94.8	
11	 673	 755	67.3000000	75.5000000	0.66000000	1.08166538	0.72111026	146.31	2.73488780	2.65849460	1.00000000	0.80000000	1.00000000	0.70000000	227.3	90.3	143.7	175.9	130.6	
12	1011	 731	101.100000	73.1000000	0.43000000	0.80622577	0.44721360	60.26	1.99446370	1.99446370	0.60000000	0.80000000	0.60000000	0.50000000	218.7	90.0	143.0	176.7	130.1	
13	1046	 717	104.600000	71.7000000	0.10000000	0.31622777	0.10000000	161.57	0.79907048	0.79907048	0.40000000	0.30000000	0.40000000	0.20000000	187.0	63.8	94.0	125.3	87.9	
14	1069	 682	106.900000	68.2000000	1.27000000	2.54558441	0.56568542	45.00	5.31711625	5.23378600	1.90000000	1.90000000	0.80000000	0.64031242	228.9	72.0	114.1	149.2	104.7	
15	 326	 676	32.6000000	67.6000000	0.70000000	1.07703296	0.76157731	111.80	2.90336071	2.85643536	0.80000000	1.10000000	0.70000000	0.70000000	224.0	93.6	148.4	185.2	135.3	
16	 602	 671	60.2000000	67.1000000	1.91000000	2.28473193	0.94868330	23.20	5.61470038	5.20032950	2.20000000	1.20000000	2.10000000	0.98488578	238.1	114.6	175.1	197.6	158.7	
17	1023	 625	102.300000	62.5000000	6.23000000	11.8713942	1.16619038	55.64	24.7711663	23.9460733	6.80000000	9.90000000	0.80000000	1.22065556	230.5	72.4	115.0	147.6	105.2	
20	 772	 586	77.2000000	58.6000000	1.49000000	2.21359436	0.72801099	71.57	4.96936059	4.90999035	1.00000000	2.20000000	0.80000000	0.82462113	231.4	79.4	128.5	162.4	116.8	
21	 201	 567	20.1000000	56.7000000	0.33000000	0.70710678	0.50000000	171.87	1.80117066	1.79669763	0.80000000	0.60000000	0.80000000	0.58309519	214.1	83.0	123.3	151.3	113.8	
22	 288	 548	28.8000000	54.8000000	0.59000000	1.04403065	0.60827625	163.30	2.52557431	2.52557431	1.10000000	0.60000000	1.10000000	0.50000000	229.8	84.7	132.2	169.7	121.4	
23	1241	 541	124.100000	54.1000000	0.11000000	0.36055513	0.14142136	56.31	0.90710678	0.88929222	0.40000000	0.40000000	0.30000000	0.28284271	189.3	62.5	93.1	126.1	87.0	
25	 629	 411	62.9000000	41.1000000	0.67000000	1.16619038	0.53851648	59.04	2.76497533	2.76050231	1.00000000	1.10000000	0.70000000	0.70710678	224.6	89.1	138.1	171.0	126.4	
26	 782	 389	78.2000000	38.9000000	0.50000000	0.92195445	0.42426407	49.40	2.29089501	2.26860742	0.90000000	0.80000000	0.80000000	0.56568542	220.9	75.3	117.2	153.8	108.1	
27	 190	 376	19.0000000	37.6000000	0.49000000	0.86023253	0.58309519	35.54	2.22325948	2.16468083	0.80000000	0.80000000	0.80000000	0.70710678	220.3	76.9	119.3	158.6	110.3	
28	 750	 367	75.0000000	36.7000000	0.51000000	0.80622577	0.58309519	29.74	2.27090520	2.25309064	0.80000000	0.80000000	0.80000000	0.58309519	222.6	92.1	141.8	172.0	129.6	
29	 161	 363	16.1000000	36.3000000	0.67000000	1.08166538	0.58309519	33.69	2.75133930	2.70676413	1.00000000	0.90000000	1.00000000	0.72111026	225.6	76.3	120.9	157.0	110.8	
30	 719	 327	71.9000000	32.7000000	4.64000000	7.14212853	0.56568542	135.57	15.7605208	14.7802410	5.40000000	5.20000000	1.00000000	0.78102497	226.8	65.3	101.4	124.0	92.5	
34	 717	 309	71.7000000	30.9000000	1.16000000	1.80277564	0.72801099	19.44	4.07200819	4.02360375	1.80000000	0.90000000	1.60000000	0.82462113	234.1	86.8	135.5	165.9	123.5	
36	 368	 280	36.8000000	28.0000000	1.30000000	1.93132079	0.76157731	68.75	4.60127771	4.43439519	1.10000000	1.90000000	0.80000000	0.82462113	228.7	79.8	131.2	170.0	119.3	
37	 619	 251	61.9000000	25.1000000	0.74000000	1.11803399	0.67082039	26.57	2.81620291	2.78653629	1.10000000	0.80000000	1.00000000	0.70000000	230.1	88.5	137.4	173.1	126.0	
38	 235	 246	23.5000000	24.6000000	0.41000000	0.72111026	0.58309519	33.69	1.95226882	1.92707523	0.70000000	0.70000000	0.70000000	0.60000000	217.7	94.1	143.1	178.0	131.5	
39	 527	 244	52.7000000	24.4000000	0.31000000	0.64031242	0.42426407	38.66	1.60979425	1.60979425	0.60000000	0.60000000	0.60000000	0.56568542	209.9	65.8	97.9	132.9	91.5	
40	  19	 178	1.90000000	17.8000000	1.13000000	1.39283883	0.92195445	21.04	4.21574777	3.61269128	1.40000000	1.00000000	1.40000000	0.90000000	230.8	74.5	116.6	129.9	104.9	
41	 321	 149	32.1000000	14.9000000	0.57000000	0.86023253	0.64031242	54.46	2.43752015	2.39451200	0.90000000	0.80000000	0.90000000	0.70000000	226.6	84.3	135.4	171.9	123.4	
42	 444	 139	44.4000000	13.9000000	0.73000000	1.14017543	0.70710678	74.74	2.83224755	2.80705396	0.80000000	1.20000000	0.80000000	0.70000000	225.7	79.4	128.9	166.9	117.6	
43	 422	  59	42.2000000	5.90000000	0.53000000	0.86023253	0.58309519	35.54	2.24330300	2.24330300	0.80000000	0.80000000	0.80000000	0.70000000	223.9	85.9	130.5	168.5	120.7	
44	 733	  11	73.3000000	1.10000000	0.30000000	0.58309519	0.44721360	149.04	1.62109048	1.61371145	0.60000000	0.60000000	0.60000000	0.50000000	210.3	62.7	95.7	132.6	89.3	

#3
liczenie
obiekt�w (w)	udzia� punkt�w	pole obrazu(mm�)	
   54	100.00	12288.0000
nr.	x(pix.):	y(pix.):	x(mm):	y(mm):	powierzchnia:(mm�)	d�ugo��:(mm)	szeroko��:(mm)	k�t:(�)	obw�d:(mm)	obw�d C.:(mm)	�rednica Fereta H(mm)	�rednica Fereta V(mm)	�redn. Martina:(mm)	�redn. sitowa:(mm)	�rednia jaskrawo��	R	G	B	Y	
1	 136	 915	13.6000000	91.5000000	0.64000000	1.17046999	0.60827625	19.98	2.80084440	2.79505329	1.20000000	0.80000000	1.00000000	0.63245553	222.2	81.0	125.6	159.0	115.2	
2	 762	 887	76.2000000	88.7000000	1.25000000	2.22036033	0.50000000	125.84	5.26245902	4.91040337	1.60000000	1.90000000	0.80000000	0.67082039	219.3	82.6	128.6	152.2	116.8	
3	  46	 874	4.60000000	87.4000000	0.40000000	0.76157731	0.53851648	23.20	2.02625341	2.00105982	0.80000000	0.60000000	0.80000000	0.50000000	218.2	106.7	155.7	174.6	142.4	
4	 406	 854	40.6000000	85.4000000	2.01000000	2.69258240	0.94339811	148.67	6.24522199	5.87310252	2.40000000	1.80000000	1.50000000	1.00000000	225.4	101.4	158.8	185.5	143.9	
5	 482	 850	48.2000000	85.0000000	0.49000000	0.89442719	0.53851648	153.43	2.24640777	2.22121418	0.90000000	0.70000000	0.80000000	0.60000000	215.4	101.2	156.9	181.1	142.2	
6	 893	 827	89.3000000	82.7000000	0.93000000	1.42126704	0.78102497	50.71	3.60096151	3.44580540	1.10000000	1.30000000	1.00000000	0.94339811	228.1	100.4	161.6	188.2	145.4	
7	  41	 810	4.10000000	81.0000000	0.56000000	1.02956301	0.63245553	119.05	2.65720035	2.56270435	0.70000000	1.00000000	0.60000000	0.60000000	221.2	84.2	129.4	160.0	118.6	
8	 134	 746	13.4000000	74.6000000	0.60000000	1.08166538	0.58309519	56.31	2.62016096	2.56141204	0.90000000	1.00000000	0.80000000	0.76157731	225.8	84.7	136.2	169.4	123.7	
9	 244	 731	24.4000000	73.1000000	0.15000000	0.42426407	0.28284271	45.00	0.98125592	0.98125592	0.40000000	0.40000000	0.40000000	0.30000000	206.2	82.1	117.5	133.7	108.1	
10	 149	 715	14.9000000	71.5000000	0.51000000	0.82462113	0.70710678	165.96	2.37242318	2.32784801	0.90000000	0.80000000	0.90000000	0.70000000	215.5	113.4	168.3	182.4	152.6	
11	 710	 697	71.0000000	69.7000000	1.05000000	1.43178211	0.76157731	24.78	3.93443135	3.71386075	1.40000000	1.20000000	1.40000000	0.86023253	227.3	97.2	155.3	181.5	140.0	
12	 657	 640	65.7000000	64.0000000	2.54000000	3.33766385	0.80622577	98.62	7.72616392	7.33363019	1.20000000	3.40000000	0.80000000	0.92195445	230.6	85.0	138.8	168.5	125.3	
13	 884	 646	88.4000000	64.6000000	0.46000000	0.78102497	0.50000000	39.81	2.08220143	2.07482240	0.80000000	0.70000000	0.80000000	0.60000000	218.9	103.4	163.3	183.3	146.8	
14	 249	 643	24.9000000	64.3000000	1.06000000	1.52643375	0.76157731	148.39	3.72705232	3.65495232	1.40000000	1.10000000	1.40000000	0.86023253	228.5	101.1	163.8	190.3	147.2	
15	 979	 632	97.9000000	63.2000000	0.55000000	0.94339811	0.58309519	122.01	2.44136854	2.42504345	0.90000000	0.90000000	0.80000000	0.67082039	213.3	99.5	157.1	179.0	141.5	
16	 423	 610	42.3000000	61.0000000	0.30000000	0.64031242	0.36055513	141.34	1.78378823	1.74078008	0.70000000	0.60000000	0.60000000	0.50000000	210.7	69.0	105.7	136.1	97.5	
17	 689	 561	68.9000000	56.1000000	0.41000000	0.76157731	0.50990195	66.80	2.06514559	1.98230288	0.70000000	0.80000000	0.60000000	0.56568542	215.1	93.6	146.2	170.8	132.5	
18	 573	 528	57.3000000	52.8000000	0.77000000	1.20415946	0.56568542	41.63	3.05789026	2.96665732	1.10000000	1.00000000	1.00000000	0.78102497	225.6	101.3	156.8	176.5	141.6	
19	 792	 520	79.2000000	52.0000000	0.43000000	0.82462113	0.50000000	14.04	2.12691068	2.09128157	0.90000000	0.60000000	0.80000000	0.50000000	218.8	106.4	163.3	181.0	147.5	
20	1103	 498	110.300000	49.8000000	1.55000000	4.58039300	1.08166538	36.12	10.6001899	9.81042492	3.80000000	3.00000000	0.40000000	1.22065556	215.4	70.3	108.6	127.6	98.7	
21	 456	 492	45.6000000	49.2000000	0.64000000	1.20830460	0.63245553	24.44	2.65892937	2.65892937	1.20000000	0.60000000	1.20000000	0.50000000	226.3	105.1	162.3	184.6	146.9	
22	 789	 475	78.9000000	47.5000000	0.22000000	0.58309519	0.36055513	30.96	1.36755107	1.34973652	0.60000000	0.40000000	0.60000000	0.30000000	221.3	87.9	131.5	156.0	120.6	
23	 871	 454	87.1000000	45.4000000	0.23000000	0.53851648	0.30000000	158.20	1.44628407	1.42846952	0.60000000	0.50000000	0.60000000	0.40000000	209.3	70.5	110.1	138.3	100.9	
24	 410	 449	41.0000000	44.9000000	0.16000000	0.42426407	0.28284271	135.00	0.96344136	0.96344136	0.40000000	0.40000000	0.40000000	0.30000000	212.8	86.4	121.9	143.1	112.9	
25	 514	 435	51.4000000	43.5000000	1.84000000	2.96816442	0.67082039	122.62	6.78405628	6.43201194	1.80000000	2.60000000	0.80000000	0.78102497	223.5	92.5	146.0	176.6	132.6	
26	 841	 444	84.1000000	44.4000000	0.26000000	0.53851648	0.31622777	111.80	1.53650582	1.51869126	0.60000000	0.60000000	0.60000000	0.53851648	214.6	82.7	121.7	150.2	112.5	
27	 516	 392	51.6000000	39.2000000	0.20000000	0.44721360	0.44721360	116.57	1.30486272	1.28704816	0.50000000	0.50000000	0.50000000	0.40000000	211.8	77.2	114.8	134.2	105.1	
28	 581	 299	58.1000000	29.9000000	0.61000000	1.02956301	0.58309519	150.95	2.60991794	2.55133930	1.00000000	0.80000000	1.00000000	0.70000000	219.1	100.7	156.3	178.5	141.3	
29	1036	 289	103.600000	28.9000000	0.67000000	1.14017543	0.60827625	105.26	3.01225774	2.83193795	0.80000000	1.20000000	0.60000000	0.63245553	217.3	87.9	141.3	168.7	127.7	
30	 743	 281	74.3000000	28.1000000	0.58000000	0.92195445	0.70000000	12.53	2.50981023	2.48304961	1.00000000	0.80000000	1.00000000	0.70000000	215.7	126.6	182.7	194.7	166.5	
31	1196	 243	119.600000	24.3000000	0.14000000	0.42426407	0.28284271	45.00	0.99907048	0.98125592	0.40000000	0.40000000	0.40000000	0.30000000	202.6	70.3	104.4	134.1	96.9	
32	  58	 219	5.80000000	21.9000000	0.47000000	0.78102497	0.56568542	39.81	2.36158232	2.18453185	0.80000000	0.80000000	0.80000000	0.67082039	220.7	76.4	114.1	148.7	106.1	
33	  11	 183	1.10000000	18.3000000	1.08000000	2.87923601	0.63245553	69.68	6.29549904	6.00471718	1.20000000	2.80000000	0.50000000	0.63245553	212.2	65.5	98.2	121.8	90.5	
34	1066	 178	106.600000	17.8000000	1.04000000	1.20830460	1.07703296	155.56	3.40602870	3.35258503	1.20000000	1.00000000	1.20000000	0.90000000	226.2	114.3	173.2	189.8	156.6	
35	1211	 168	121.100000	16.8000000	0.35000000	0.76157731	0.44721360	156.80	1.85925191	1.84143735	0.80000000	0.60000000	0.70000000	0.50000000	214.1	90.0	141.5	168.6	128.3	
36	 636	 163	63.6000000	16.3000000	0.58000000	0.89442719	0.53851648	26.57	2.40494752	2.38713297	0.90000000	0.80000000	0.90000000	0.70000000	223.3	93.5	147.4	175.3	133.7	
37	 457	 135	45.7000000	13.5000000	3.28000000	4.68187996	0.94868330	160.02	10.4308123	10.0383977	4.50000000	2.20000000	1.80000000	0.94868330	233.6	90.8	145.5	178.9	132.1	
38	 209	  31	20.9000000	3.10000000	0.40000000	0.72801099	0.40000000	15.95	2.09481221	1.99415494	0.80000000	0.70000000	0.70000000	0.56568542	215.2	83.0	130.1	164.6	119.1	
39	  76	  17	7.60000000	1.70000000	0.62000000	0.94339811	0.58309519	32.01	2.61413849	2.53129578	0.90000000	0.80000000	0.80000000	0.70000000	226.7	121.9	178.1	199.8	162.9	
40	 661	  17	66.1000000	1.70000000	0.43000000	0.80622577	0.44721360	60.26	2.02016096	2.02016096	0.70000000	0.80000000	0.70000000	0.60000000	215.2	87.9	136.5	161.4	124.0	
41	 852	  17	85.2000000	1.70000000	0.54000000	1.14017543	0.42426407	37.87	2.36708944	2.32698730	1.00000000	0.80000000	0.80000000	0.56568542	225.2	91.3	143.2	176.2	130.5	
42	 110	  14	11.0000000	1.40000000	0.66000000	1.25299641	0.58309519	61.39	3.03107722	2.95237440	0.80000000	1.20000000	0.60000000	0.72801099	221.3	77.5	119.0	153.6	109.7	

#4
liczenie
obiekt�w (w)	udzia� punkt�w	pole obrazu(mm�)	
   58	100.00	12288.0000
nr.	x(pix.):	y(pix.):	x(mm):	y(mm):	powierzchnia:(mm�)	d�ugo��:(mm)	szeroko��:(mm)	k�t:(�)	obw�d:(mm)	obw�d C.:(mm)	�rednica Fereta H(mm)	�rednica Fereta V(mm)	�redn. Martina:(mm)	�redn. sitowa:(mm)	�rednia jaskrawo��	R	G	B	Y	
2	 229	 914	22.9000000	91.4000000	1.43000000	3.38378486	0.36055513	55.84	7.26065510	7.05073940	2.10000000	2.90000000	0.50000000	0.44721360	220.6	76.2	103.3	122.8	96.8	
3	 787	 917	78.7000000	91.7000000	0.71000000	1.20415946	0.56568542	48.37	2.93072957	2.86636336	1.10000000	1.00000000	0.90000000	0.78102497	227.5	94.3	134.8	163.2	125.2	
4	 240	 910	24.0000000	91.0000000	0.58000000	1.01980390	0.50000000	168.69	2.60915295	2.56497533	1.10000000	0.70000000	1.10000000	0.60000000	222.7	87.5	120.7	142.8	112.6	
6	 536	 866	53.6000000	86.6000000	0.81000000	1.36014705	0.63245553	72.90	3.28476171	3.21640948	0.90000000	1.40000000	0.80000000	0.63245553	227.0	91.3	130.9	156.9	121.3	
9	 832	 851	83.2000000	85.1000000	0.49000000	0.80622577	0.53851648	29.74	2.20580823	2.19602059	0.80000000	0.80000000	0.80000000	0.70710678	224.3	86.3	129.5	158.3	119.0	
10	 277	 820	27.7000000	82.0000000	0.36000000	0.67082039	0.44721360	153.43	1.78806249	1.78806249	0.70000000	0.60000000	0.70000000	0.50000000	221.4	90.3	125.7	150.5	117.3	
11	 214	 811	21.4000000	81.1000000	0.51000000	0.92195445	0.50000000	49.40	2.20339962	2.19602059	0.80000000	0.80000000	0.70000000	0.70710678	218.3	85.4	116.6	137.5	109.0	
12	 790	 770	79.0000000	77.0000000	0.50000000	0.89442719	0.53851648	116.57	2.31038271	2.27028056	0.80000000	0.90000000	0.80000000	0.56568542	213.3	96.6	138.4	164.6	128.1	
13	 364	 725	36.4000000	72.5000000	1.42000000	1.80277564	0.72111026	33.69	4.26250988	4.25210741	1.70000000	1.20000000	1.50000000	1.00000000	236.1	96.5	134.1	156.6	124.7	
14	 674	 703	67.4000000	70.3000000	2.06000000	4.34165867	1.25299641	118.93	10.3501663	9.42870479	2.30000000	3.90000000	0.60000000	1.30384048	217.7	80.5	112.2	131.0	104.2	
15	 816	 713	81.6000000	71.3000000	0.57000000	0.94868330	0.72801099	108.43	2.56112694	2.51364577	0.80000000	1.00000000	0.80000000	0.70000000	220.9	94.6	137.2	162.8	126.5	
16	 549	 703	54.9000000	70.3000000	0.59000000	0.98488578	0.50990195	156.04	2.56838887	2.55944282	1.00000000	0.80000000	1.00000000	0.67082039	219.8	95.1	136.6	161.1	126.2	
17	 901	 668	90.1000000	66.8000000	1.60000000	3.56931366	0.70710678	101.31	8.01708604	7.67047778	1.00000000	3.60000000	0.50000000	0.70710678	218.7	80.7	117.4	140.2	108.3	
18	1044	 670	104.400000	67.0000000	0.41000000	0.80622577	0.53851648	150.26	2.08724067	2.06701750	0.80000000	0.60000000	0.80000000	0.50000000	222.3	94.1	135.7	162.8	125.6	
19	 462	 667	46.2000000	66.7000000	0.54000000	0.86023253	0.67082039	35.54	2.30293486	2.30130916	0.80000000	0.80000000	0.80000000	0.70000000	226.6	98.7	140.4	164.8	129.9	
20	 621	 615	62.1000000	61.5000000	0.42000000	0.76157731	0.50990195	66.80	1.96448832	1.96448832	0.70000000	0.80000000	0.70000000	0.56568542	215.8	87.3	122.5	144.7	113.9	
21	 895	 606	89.5000000	60.6000000	0.55000000	0.98488578	0.53851648	156.04	2.46054615	2.46054615	1.00000000	0.60000000	1.00000000	0.50000000	226.0	93.2	133.7	161.4	124.0	
22	 899	 545	89.9000000	54.5000000	0.51000000	0.86023253	0.64031242	54.46	2.43902874	2.33587492	0.90000000	0.80000000	0.80000000	0.70000000	216.0	112.9	160.4	178.0	147.5	
23	 520	 518	52.0000000	51.8000000	1.11000000	1.98494332	0.50000000	139.09	4.56929066	4.32434601	1.70000000	1.40000000	0.80000000	0.64031242	224.1	91.0	123.1	141.6	115.0	
24	1108	 522	110.800000	52.2000000	0.41000000	0.76157731	0.41231056	156.80	2.08953217	2.07054814	0.80000000	0.60000000	0.80000000	0.50000000	219.3	97.6	143.4	171.3	132.0	
25	 418	 511	41.8000000	51.1000000	1.18000000	1.94164878	0.44721360	124.51	4.55147610	4.33692189	1.40000000	1.70000000	0.80000000	0.67082039	224.0	91.9	125.1	144.7	116.7	
26	 674	 516	67.4000000	51.6000000	0.48000000	0.82462113	0.50000000	165.96	2.21607921	2.19826465	0.90000000	0.60000000	0.90000000	0.50000000	225.0	111.4	154.9	177.7	143.8	
27	 184	 481	18.4000000	48.1000000	0.64000000	1.20830460	0.41231056	24.44	2.93165909	2.87156672	1.20000000	0.90000000	0.80000000	0.67082039	220.4	92.5	124.5	144.7	116.6	
28	 210	 464	21.0000000	46.4000000	0.63000000	1.08166538	0.58309519	56.31	2.58231574	2.58099766	0.80000000	1.00000000	0.70000000	0.63245553	224.9	91.2	122.8	141.8	114.8	
29	  18	 358	1.80000000	35.8000000	0.44000000	0.82462113	0.50000000	14.04	2.10909613	2.09128157	0.90000000	0.60000000	0.90000000	0.50000000	224.9	110.3	144.9	164.8	136.2	
30	 869	 339	86.9000000	33.9000000	0.85000000	1.30384048	0.67082039	32.47	3.36659864	3.27767114	1.20000000	1.00000000	1.20000000	0.80622577	229.1	103.4	150.1	175.8	138.2	
31	1153	 291	115.300000	29.1000000	0.91000000	2.05912603	0.58309519	150.95	4.73355012	4.51753213	1.90000000	1.30000000	1.30000000	0.67082039	217.9	68.7	103.3	126.5	94.9	
32	 731	 291	73.1000000	29.1000000	0.25000000	0.53851648	0.41231056	158.20	1.49853690	1.49853690	0.60000000	0.50000000	0.60000000	0.40000000	209.6	88.7	122.0	144.1	113.9	
33	1041	 279	104.100000	27.9000000	0.92000000	2.23606798	0.40000000	169.70	4.91631439	4.80070525	2.30000000	0.80000000	1.80000000	0.60827625	224.1	75.8	110.7	134.1	102.3	
34	  96	 238	9.60000000	23.8000000	0.42000000	0.80622577	0.40000000	 7.13	2.05292609	2.03511153	0.90000000	0.60000000	0.90000000	0.50000000	221.3	94.3	130.6	150.2	121.2	
35	1018	 179	101.800000	17.9000000	0.57000000	1.17046999	0.50990195	70.02	2.78285871	2.73252756	0.70000000	1.20000000	0.60000000	0.60827625	218.5	87.5	133.3	161.2	122.0	
36	 827	 172	82.7000000	17.2000000	0.97000000	2.20227155	0.42426407	50.53	4.59145661	4.56428653	1.50000000	1.80000000	0.70000000	0.56568542	223.1	83.2	121.2	142.7	111.6	
37	1016	 136	101.600000	13.6000000	0.42000000	0.86023253	0.44721360	35.54	1.91969620	1.91969620	0.80000000	0.60000000	0.80000000	0.50000000	226.2	95.9	141.7	169.0	130.3	
38	1132	 111	113.200000	11.1000000	0.12000000	0.36055513	0.20000000	56.31	0.98125592	0.98125592	0.40000000	0.40000000	0.40000000	0.28284271	197.4	68.3	97.7	124.6	91.3	
39	 753	  96	75.3000000	9.60000000	0.71000000	1.33416641	0.50000000	77.01	3.00672734	3.00584634	0.60000000	1.40000000	0.60000000	0.50990195	226.3	93.3	140.4	166.2	128.4	
40	 791	  70	79.1000000	7.00000000	0.81000000	1.20415946	0.64031242	48.37	3.00786012	2.99687890	1.10000000	1.00000000	1.10000000	0.84852814	229.8	107.3	159.5	183.1	145.8	
41	 328	  57	32.8000000	5.70000000	0.41000000	0.72801099	0.40000000	164.05	1.96448832	1.95710929	0.80000000	0.70000000	0.80000000	0.60000000	219.9	86.2	120.0	141.3	111.6	
42	 207	  41	20.7000000	4.10000000	1.46000000	2.59422435	0.76157731	117.55	6.09676626	5.76664393	1.60000000	2.40000000	0.80000000	0.86023253	223.2	85.0	112.8	130.1	105.8	
43	 719	  21	71.9000000	2.10000000	0.26000000	0.58309519	0.36055513	30.96	1.42455231	1.42455231	0.60000000	0.50000000	0.60000000	0.40000000	212.6	72.3	103.3	127.8	96.1	

#5
liczenie
obiekt�w (w)	udzia� punkt�w	pole obrazu(mm�)	
   54	100.00	12288.0000
nr.	x(pix.):	y(pix.):	x(mm):	y(mm):	powierzchnia:(mm�)	d�ugo��:(mm)	szeroko��:(mm)	k�t:(�)	obw�d:(mm)	obw�d C.:(mm)	�rednica Fereta H(mm)	�rednica Fereta V(mm)	�redn. Martina:(mm)	�redn. sitowa:(mm)	�rednia jaskrawo��	R	G	B	Y	
1	1231	 953	123.100000	95.3000000	0.50000000	0.89442719	0.53851648	26.57	2.32372424	2.28362210	0.90000000	0.80000000	0.90000000	0.72111026	221.0	86.5	132.4	166.6	121.7	
2	 572	 861	57.2000000	86.1000000	2.43000000	3.80788655	0.67082039	29.93	8.25172638	7.94694625	3.50000000	2.00000000	1.40000000	0.67082039	234.1	95.1	142.0	172.2	130.6	
3	 866	 853	86.6000000	85.3000000	1.24000000	1.52315462	0.94868330	156.80	4.35043670	4.04080425	1.50000000	1.30000000	1.40000000	1.07703296	228.6	98.9	152.3	181.2	138.8	
4	 711	 821	71.1000000	82.1000000	0.54000000	0.82462113	0.70710678	165.96	2.32477746	2.30248987	0.90000000	0.80000000	0.90000000	0.70000000	220.2	118.3	176.7	192.6	160.3	
5	 521	 816	52.1000000	81.6000000	0.48000000	0.90553851	0.40000000	 6.34	2.22462771	2.20681316	1.00000000	0.60000000	1.00000000	0.50000000	223.7	109.4	161.3	183.1	147.5	
6	 353	 812	35.3000000	81.2000000	0.83000000	1.30384048	0.58309519	32.47	3.25555413	3.20826121	1.30000000	1.00000000	1.10000000	0.78102497	227.9	99.3	146.7	169.3	134.3	
7	 584	 814	58.4000000	81.4000000	0.27000000	0.58309519	0.44721360	120.96	1.50486272	1.50486272	0.50000000	0.60000000	0.50000000	0.40000000	216.8	85.2	122.8	148.9	113.8	
8	 512	 800	51.2000000	80.0000000	0.78000000	1.16619038	0.67082039	120.96	3.21647829	3.02850528	1.10000000	1.10000000	0.80000000	0.70710678	221.5	109.6	164.7	185.9	149.8	
9	 288	 761	28.8000000	76.1000000	0.39000000	0.76157731	0.44721360	156.80	1.90001599	1.89022835	0.80000000	0.60000000	0.80000000	0.50000000	219.0	80.5	124.4	157.5	114.2	
11	 947	 632	94.7000000	63.2000000	0.42000000	0.94868330	0.50990195	161.57	2.16076989	2.14891783	1.00000000	0.60000000	0.90000000	0.50000000	213.9	79.8	119.4	148.8	110.1	
12	 481	 619	48.1000000	61.9000000	0.58000000	1.04403065	0.60000000	73.30	2.54319528	2.51668361	0.70000000	1.10000000	0.60000000	0.60000000	219.2	110.0	164.1	189.3	150.0	
13	 589	 614	58.9000000	61.4000000	0.81000000	1.28062485	0.64031242	38.66	3.15878715	3.12206396	1.20000000	1.00000000	1.10000000	0.84852814	230.4	99.5	150.1	175.2	137.0	
14	 837	 613	83.7000000	61.3000000	0.46000000	0.80622577	0.53851648	60.26	2.13445426	2.10926067	0.70000000	0.80000000	0.70000000	0.60000000	223.2	106.1	160.8	181.9	146.1	
15	 728	 587	72.8000000	58.7000000	0.63000000	1.06301458	0.56568542	138.81	2.66911495	2.59785672	1.10000000	0.80000000	1.00000000	0.70000000	223.8	108.0	160.1	182.9	146.3	
16	 580	 494	58.0000000	49.4000000	0.92000000	1.47648231	0.63245553	61.70	3.62176375	3.49033373	1.00000000	1.40000000	0.80000000	0.76157731	228.1	106.5	163.3	186.8	148.1	
17	 268	 465	26.8000000	46.5000000	0.74000000	1.17046999	0.72801099	109.98	3.04466498	2.95270128	0.80000000	1.20000000	0.70000000	0.70000000	222.6	86.9	132.5	159.6	121.2	
18	 507	 346	50.7000000	34.6000000	0.45000000	0.76157731	0.50990195	156.80	2.06849659	2.06457938	0.80000000	0.70000000	0.80000000	0.60000000	221.0	95.4	144.0	173.0	131.9	
19	1192	 344	119.200000	34.4000000	0.70000000	1.20830460	0.63245553	155.56	2.94697586	2.91339990	1.20000000	0.80000000	1.20000000	0.70000000	227.9	86.9	133.6	163.7	122.3	
20	 547	 316	54.7000000	31.6000000	0.29000000	0.58309519	0.44721360	59.04	1.56597367	1.56597367	0.60000000	0.60000000	0.60000000	0.56568542	213.9	76.0	108.1	136.3	101.0	
22	1205	 261	120.500000	26.1000000	0.49000000	0.92195445	0.50000000	130.60	2.45039379	2.35618603	0.80000000	0.80000000	0.80000000	0.64031242	220.3	91.3	140.7	171.3	128.7	
23	 817	 253	81.7000000	25.3000000	0.80000000	1.20830460	0.63245553	114.44	3.25832239	3.09714575	1.00000000	1.20000000	1.00000000	0.78102497	220.4	105.0	161.5	184.5	146.3	
24	 882	 251	88.2000000	25.1000000	1.05000000	1.43178211	0.80622577	12.09	3.80959541	3.65264581	1.50000000	0.90000000	1.50000000	0.80000000	229.6	108.2	164.6	190.3	149.8	
25	 716	 224	71.6000000	22.4000000	0.65000000	0.98488578	0.63245553	113.96	2.70300367	2.64116977	0.90000000	1.00000000	0.80000000	0.72801099	218.6	108.3	163.2	178.6	147.8	
26	 861	 208	86.1000000	20.8000000	0.87000000	1.36014705	0.72801099	107.10	3.37740135	3.33288461	0.80000000	1.40000000	0.70000000	0.70000000	225.4	93.8	145.6	173.6	132.5	
27	 743	 199	74.3000000	19.9000000	0.15000000	0.44721360	0.22360680	26.57	1.04628407	1.04628407	0.50000000	0.40000000	0.50000000	0.28284271	204.7	72.3	101.1	124.5	94.5	
28	 347	 177	34.7000000	17.7000000	0.20000000	0.58309519	0.22360680	30.96	1.23890504	1.23890504	0.60000000	0.40000000	0.60000000	0.30000000	214.1	66.5	95.0	121.0	88.7	
29	  61	 161	6.10000000	16.1000000	1.37000000	1.65529454	0.98488578	64.98	4.33938141	4.15963408	1.00000000	1.60000000	0.80000000	0.90000000	234.4	94.7	141.5	173.1	130.3	
30	 360	 156	36.0000000	15.6000000	0.40000000	0.80622577	0.44721360	29.74	1.96270435	1.94488979	0.80000000	0.60000000	0.80000000	0.50000000	223.0	80.7	120.8	150.2	111.4	
31	 123	 129	12.3000000	12.9000000	0.47000000	0.86023253	0.44721360	54.46	2.17400058	2.15618603	0.80000000	0.80000000	0.80000000	0.56568542	225.3	93.9	139.4	166.4	128.1	
32	1150	 115	115.000000	11.5000000	0.49000000	0.80622577	0.67082039	60.26	2.17838568	2.11980704	0.80000000	0.80000000	0.80000000	0.70000000	214.6	100.3	155.4	179.3	140.8	
33	 416	  97	41.6000000	9.70000000	0.65000000	0.98488578	0.67082039	156.04	2.61978099	2.60196643	1.00000000	0.80000000	1.00000000	0.70000000	226.6	93.4	142.9	173.5	130.8	
34	 374	  73	37.4000000	7.30000000	0.73000000	1.17046999	0.50990195	70.02	2.87098060	2.84220893	0.80000000	1.20000000	0.80000000	0.76157731	223.0	92.6	140.9	167.5	128.6	
35	 924	  38	92.4000000	3.80000000	0.88000000	1.39283883	0.72801099	68.96	3.44755433	3.33802194	0.80000000	1.40000000	0.80000000	0.70000000	227.2	92.4	144.7	174.7	131.6	
36	 418	   7	41.8000000	0.70000000	0.63000000	0.94868330	0.72801099	161.57	2.67478155	2.55630972	1.00000000	0.80000000	1.00000000	0.70000000	225.3	98.0	144.8	175.1	133.4	

#6
liczenie
obiekt�w (w)	udzia� punkt�w	pole obrazu(mm�)	
   43	100.00	12288.0000
nr.	x(pix.):	y(pix.):	x(mm):	y(mm):	powierzchnia:(mm�)	d�ugo��:(mm)	szeroko��:(mm)	k�t:(�)	obw�d:(mm)	obw�d C.:(mm)	�rednica Fereta H(mm)	�rednica Fereta V(mm)	�redn. Martina:(mm)	�redn. sitowa:(mm)	�rednia jaskrawo��	R	G	B	Y	
1	 483	 929	48.3000000	92.9000000	0.21000000	0.53851648	0.31622777	21.80	1.36755107	1.34973652	0.60000000	0.40000000	0.60000000	0.30000000	215.0	70.6	102.7	131.8	95.8	
2	 805	 830	80.5000000	83.0000000	0.37000000	0.70710678	0.56568542	135.00	1.84647658	1.82866202	0.70000000	0.60000000	0.70000000	0.50000000	222.7	105.8	161.4	189.7	147.1	
3	  87	 746	8.70000000	74.6000000	0.34000000	0.64031242	0.50000000	141.34	1.79919417	1.78137962	0.70000000	0.60000000	0.70000000	0.50000000	218.3	96.8	144.9	171.9	132.8	
4	 970	 724	97.0000000	72.4000000	0.70000000	1.17046999	0.63245553	19.98	2.89802047	2.89802047	1.20000000	0.70000000	1.20000000	0.60000000	229.1	79.8	128.1	165.5	117.1	
5	 113	 716	11.3000000	71.6000000	0.42000000	0.80622577	0.53851648	60.26	1.98173667	1.97932806	0.60000000	0.80000000	0.60000000	0.50000000	219.6	77.3	119.8	147.3	109.5	
6	1244	 708	124.400000	70.8000000	0.44000000	0.94868330	0.50990195	108.43	2.39814096	2.30683920	0.60000000	1.00000000	0.60000000	0.50000000	210.7	76.3	119.6	157.4	110.2	
7	1121	 702	112.100000	70.2000000	0.56000000	1.02956301	0.44721360	119.05	2.67482240	2.58321376	0.80000000	1.00000000	0.60000000	0.67082039	217.4	86.0	135.0	168.5	123.4	
8	  71	 689	7.10000000	68.9000000	0.56000000	1.00000000	0.42426407	36.87	2.46122839	2.45925191	1.00000000	0.80000000	0.90000000	0.56568542	221.4	88.5	137.5	169.6	125.7	
9	 566	 625	56.6000000	62.5000000	0.16000000	0.42426407	0.42426407	135.00	1.20644951	1.19907048	0.40000000	0.50000000	0.40000000	0.30000000	189.7	76.4	112.8	135.9	103.9	
10	 951	 624	95.1000000	62.4000000	0.36000000	0.70710678	0.56568542	45.00	1.76119576	1.74338120	0.70000000	0.60000000	0.70000000	0.50000000	222.1	117.3	175.3	198.1	159.7	
11	   6	 615	0.60000000	61.5000000	0.50000000	0.86023253	0.58309519	125.54	2.28871976	2.20785353	0.80000000	0.80000000	0.80000000	0.67082039	221.9	88.8	132.1	162.8	121.8	
12	 788	 610	78.8000000	61.0000000	1.34000000	2.30217289	0.58309519	145.62	5.43263257	5.06470447	2.00000000	1.50000000	1.00000000	0.64031242	225.3	82.5	131.4	162.5	119.5	
13	 599	 609	59.9000000	60.9000000	0.26000000	0.58309519	0.44721360	149.04	1.50897243	1.49115787	0.60000000	0.50000000	0.60000000	0.40000000	216.4	82.5	121.2	141.1	111.2	
14	 443	 594	44.3000000	59.4000000	0.32000000	0.58309519	0.44721360	120.96	1.66099386	1.66099386	0.60000000	0.60000000	0.60000000	0.50000000	214.7	74.8	112.1	143.8	103.8	
15	 913	 568	91.3000000	56.8000000	0.58000000	0.98994949	0.56568542	45.00	2.45180406	2.44442503	0.90000000	0.90000000	0.90000000	0.70710678	225.2	103.0	162.5	191.4	147.1	
16	 139	 560	13.9000000	56.0000000	1.30000000	2.55538647	0.67082039	149.42	5.89280928	5.52802088	2.30000000	1.60000000	1.00000000	0.67082039	223.4	73.7	111.7	134.9	102.3	
17	 613	 521	61.3000000	52.1000000	0.92000000	1.39283883	0.72801099	21.04	3.35566944	3.31109427	1.40000000	0.80000000	1.30000000	0.70000000	229.2	121.1	178.9	194.5	162.6	
18	  22	 466	2.20000000	46.6000000	1.18000000	1.80277564	0.58309519	56.31	4.31320326	4.22346026	1.20000000	1.70000000	0.80000000	0.67082039	231.3	84.2	131.0	163.3	119.9	
19	 769	 469	76.9000000	46.9000000	0.46000000	0.89442719	0.53851648	116.57	2.32174775	2.28220143	0.70000000	0.90000000	0.60000000	0.53851648	219.7	99.6	154.2	183.4	140.3	
20	 131	 461	13.1000000	46.1000000	0.81000000	1.20830460	0.76157731	155.56	3.14854413	3.04879661	1.20000000	0.90000000	1.20000000	0.80000000	225.2	101.1	156.8	185.5	142.6	
21	 518	 459	51.8000000	45.9000000	0.73000000	1.17046999	0.63245553	19.98	2.89388269	2.85180406	1.20000000	0.80000000	1.20000000	0.70000000	223.7	104.7	160.7	179.5	145.3	
22	 670	 452	67.0000000	45.2000000	0.44000000	0.86023253	0.50000000	35.54	1.97273194	1.97273194	0.80000000	0.60000000	0.80000000	0.50000000	227.1	103.4	158.9	185.9	144.4	
23	 578	 432	57.8000000	43.2000000	0.28000000	0.78102497	0.28284271	39.81	1.63782503	1.61553745	0.70000000	0.60000000	0.60000000	0.28284271	216.8	78.2	113.8	131.5	104.5	
25	 726	 405	72.6000000	40.5000000	0.62000000	0.98488578	0.72801099	66.04	2.56915386	2.52905172	0.80000000	1.00000000	0.80000000	0.70000000	221.6	102.8	162.2	182.9	146.0	
29	 270	 387	27.0000000	38.7000000	0.52000000	0.92195445	0.64031242	130.60	2.37400058	2.33445426	0.80000000	0.80000000	0.80000000	0.64031242	220.3	105.6	158.4	180.9	144.4	
30	 395	 388	39.5000000	38.8000000	0.59000000	0.94868330	0.60827625	161.57	2.46961862	2.45832239	1.00000000	0.70000000	1.00000000	0.60000000	220.8	109.9	168.5	190.9	152.7	
31	 518	 383	51.8000000	38.3000000	0.79000000	1.17046999	0.72801099	109.98	3.24781805	3.10819376	1.10000000	1.20000000	1.00000000	0.78102497	223.0	102.3	157.4	181.8	142.9	
32	 773	 380	77.3000000	38.0000000	0.68000000	1.02956301	0.67082039	119.05	2.84788686	2.72625655	1.00000000	1.00000000	1.00000000	0.70710678	220.1	104.6	160.6	183.5	145.5	
33	 484	 376	48.4000000	37.6000000	0.68000000	0.98488578	0.67082039	113.96	2.81631916	2.72501741	0.90000000	1.00000000	0.80000000	0.80000000	225.9	103.1	162.5	186.1	146.6	
36	 874	 358	87.4000000	35.8000000	0.73000000	1.31529464	0.60000000	81.25	3.09473714	3.06898773	0.80000000	1.40000000	0.70000000	0.60827625	220.0	87.6	141.6	174.0	128.3	
37	 568	 354	56.8000000	35.4000000	0.68000000	1.17046999	0.53851648	19.98	2.82181226	2.81789506	1.20000000	0.70000000	1.20000000	0.60000000	230.3	103.5	158.3	183.0	144.0	
40	  51	 316	5.10000000	31.6000000	0.49000000	0.98488578	0.53851648	23.96	2.28848640	2.27067184	1.00000000	0.60000000	0.90000000	0.50000000	217.6	98.2	141.9	164.0	130.7	
41	1129	 311	112.900000	31.1000000	0.88000000	1.30000000	0.94868330	112.62	3.54595611	3.32960101	1.20000000	1.30000000	1.00000000	0.84852814	222.7	85.9	141.8	178.5	128.4	
43	 527	 273	52.7000000	27.3000000	0.12000000	0.36055513	0.14142136	56.31	0.88929222	0.88929222	0.40000000	0.40000000	0.40000000	0.28284271	185.2	73.2	104.3	120.9	96.3	
45	 602	 225	60.2000000	22.5000000	0.46000000	0.78102497	0.50000000	39.81	2.01624376	2.01624376	0.80000000	0.80000000	0.80000000	0.70710678	219.7	104.8	161.5	190.5	146.9	
46	 768	 194	76.8000000	19.4000000	0.87000000	1.47648231	0.67082039	61.70	3.49707694	3.47493554	1.00000000	1.40000000	0.80000000	0.80622577	225.2	86.5	138.9	169.0	125.8	
47	 870	 188	87.0000000	18.8000000	0.75000000	1.40000000	0.50000000	 0.00	3.07407376	3.05625920	1.50000000	0.60000000	1.50000000	0.50000000	233.6	81.0	128.7	161.5	117.5	
48	 216	  80	21.6000000	8.00000000	0.41000000	0.80622577	0.44721360	29.74	1.92707523	1.92707523	0.80000000	0.60000000	0.80000000	0.50000000	220.1	89.3	138.7	170.5	126.7	
50	 604	  48	60.4000000	4.80000000	0.38000000	0.72801099	0.40000000	15.95	1.91783055	1.90001599	0.80000000	0.60000000	0.80000000	0.50000000	211.0	83.2	122.0	144.5	112.3	

#7
liczenie
obiekt�w (w)	udzia� punkt�w	pole obrazu(mm�)	
   60	100.00	12288.0000
nr.	x(pix.):	y(pix.):	x(mm):	y(mm):	powierzchnia:(mm�)	d�ugo��:(mm)	szeroko��:(mm)	k�t:(�)	obw�d:(mm)	obw�d C.:(mm)	�rednica Fereta H(mm)	�rednica Fereta V(mm)	�redn. Martina:(mm)	�redn. sitowa:(mm)	�rednia jaskrawo��	R	G	B	Y	
1	 350	 948	35.0000000	94.8000000	0.60000000	1.02956301	0.53851648	119.05	2.67241379	2.55133930	0.80000000	1.00000000	0.80000000	0.67082039	222.1	89.5	138.7	171.0	126.8	
2	 305	 943	30.5000000	94.3000000	0.11000000	0.36055513	0.14142136	56.31	0.90710678	0.88929222	0.40000000	0.40000000	0.30000000	0.28284271	195.5	64.4	93.1	122.9	87.3	
3	1020	 928	102.000000	92.8000000	0.67000000	1.16619038	0.67082039	120.96	3.05557465	2.92991738	1.00000000	1.10000000	0.60000000	0.72111026	223.4	74.8	118.3	150.2	108.1	
4	 417	 925	41.7000000	92.5000000	0.70000000	1.14017543	0.70710678	105.26	2.92335054	2.86961862	0.70000000	1.20000000	0.60000000	0.60000000	225.6	88.1	136.5	168.0	124.8	
6	   8	 889	0.80000000	88.9000000	1.05000000	1.48660687	0.86023253	42.27	3.88779683	3.72999185	1.30000000	1.30000000	1.10000000	0.89442719	228.4	84.9	129.3	166.1	119.5	
7	1105	 874	110.500000	87.4000000	0.46000000	0.92195445	0.40000000	77.47	2.24478207	2.21958848	0.60000000	1.00000000	0.60000000	0.50000000	216.3	76.3	119.5	157.7	110.1	
8	1044	 856	104.400000	85.6000000	0.21000000	0.53851648	0.31622777	111.80	1.37387689	1.36995968	0.40000000	0.60000000	0.40000000	0.31622777	201.1	73.3	107.2	142.1	100.3	
9	 745	 844	74.5000000	84.4000000	0.52000000	0.98488578	0.44721360	66.04	2.39587505	2.37565188	0.60000000	1.00000000	0.60000000	0.50990195	224.1	80.9	132.2	166.6	119.9	
10	1107	 801	110.700000	80.1000000	4.19000000	8.24924239	0.60000000	83.74	17.2640783	16.8068317	1.20000000	8.30000000	0.50000000	0.60000000	226.0	73.5	120.8	152.7	109.5	
11	 572	 810	57.2000000	81.0000000	0.63000000	1.01980390	0.60000000	168.69	2.60366095	2.58452830	1.10000000	0.80000000	1.00000000	0.80622577	224.9	103.8	157.4	182.4	143.4	
12	 175	 799	17.5000000	79.9000000	0.64000000	1.01980390	0.60000000	168.69	2.67047307	2.62972017	1.10000000	0.80000000	1.10000000	0.70000000	222.3	89.3	138.3	170.7	126.5	
13	 833	 793	83.3000000	79.3000000	0.75000000	0.98488578	0.72801099	156.04	2.71775548	2.69994092	1.00000000	0.90000000	1.00000000	0.84852814	219.8	110.1	169.9	189.1	153.3	
14	1058	 760	105.800000	76.0000000	0.14000000	0.36055513	0.22360680	146.31	0.98125592	0.98125592	0.40000000	0.40000000	0.40000000	0.30000000	200.1	67.1	99.8	133.6	93.2	
15	  78	 754	7.80000000	75.4000000	0.68000000	1.20415946	0.64031242	131.63	2.78415187	2.76633731	0.90000000	1.00000000	0.80000000	0.67082039	219.4	87.5	134.8	166.0	123.4	
16	1268	 752	126.800000	75.2000000	0.88000000	1.42126704	0.72111026	39.29	3.61395884	3.41650233	1.40000000	1.00000000	1.40000000	0.63245553	223.7	83.7	137.3	175.5	124.7	
17	 114	 706	11.4000000	70.6000000	0.64000000	1.30000000	0.53851648	22.62	2.76765293	2.74983837	1.30000000	0.60000000	1.30000000	0.50000000	231.2	83.3	127.1	159.6	117.0	
18	 385	 692	38.5000000	69.2000000	0.17000000	0.42426407	0.28284271	45.00	1.27147766	1.24628407	0.50000000	0.50000000	0.50000000	0.42426407	193.5	64.9	97.0	123.1	89.6	
19	 971	 683	97.1000000	68.3000000	0.26000000	0.58309519	0.36055513	30.96	1.47229010	1.46837289	0.60000000	0.50000000	0.60000000	0.40000000	220.2	81.7	125.9	160.0	115.8	
20	 777	 656	77.7000000	65.6000000	1.87000000	3.44818793	0.82462113	106.86	7.91316167	7.49192361	1.40000000	3.40000000	0.60000000	0.85440037	220.8	76.4	120.9	147.8	109.9	
21	 602	 600	60.2000000	60.0000000	1.20000000	1.70293864	0.92195445	130.24	4.66513554	4.23225416	1.50000000	1.50000000	1.30000000	1.06301458	225.6	92.9	146.2	175.0	132.7	
22	  30	 563	3.00000000	56.3000000	0.56000000	0.89442719	0.63245553	26.57	2.50870957	2.41450181	0.90000000	0.80000000	0.80000000	0.70000000	220.3	122.3	178.9	197.6	163.3	
23	1202	 494	120.200000	49.4000000	0.14000000	0.42426407	0.28284271	45.00	0.91224175	0.91224175	0.40000000	0.40000000	0.40000000	0.28284271	196.1	61.6	93.1	126.1	86.7	
24	 740	 443	74.0000000	44.3000000	1.06000000	2.28254244	0.44721360	28.81	5.07369528	4.85919912	2.10000000	1.40000000	1.10000000	0.67082039	223.0	72.0	110.3	134.9	100.9	
25	 122	 437	12.2000000	43.7000000	0.43000000	0.76157731	0.53851648	113.20	1.94729840	1.94729840	0.70000000	0.80000000	0.70000000	0.60000000	214.0	93.8	144.4	173.7	131.8	
27	1229	 411	122.900000	41.1000000	0.41000000	0.86023253	0.50000000	125.54	2.03498784	2.01717328	0.60000000	0.80000000	0.60000000	0.50000000	220.5	90.9	142.4	174.8	129.8	
28	 517	 408	51.7000000	40.8000000	0.62000000	1.04403065	0.60827625	16.70	2.73600983	2.65921184	1.10000000	0.80000000	1.10000000	0.70000000	221.0	100.7	155.6	180.8	141.2	
29	 156	 357	15.6000000	35.7000000	0.58000000	1.00000000	0.64031242	36.87	2.54722959	2.51756297	0.90000000	0.90000000	0.80000000	0.72111026	223.3	94.4	149.5	178.9	135.5	
30	 747	 343	74.7000000	34.3000000	0.39000000	0.76157731	0.53851648	66.80	1.91783055	1.89554297	0.60000000	0.80000000	0.60000000	0.50000000	213.1	81.0	119.7	144.1	110.2	
31	 115	 342	11.5000000	34.2000000	0.45000000	0.85440037	0.53851648	20.56	2.32528499	2.22300202	0.90000000	0.60000000	0.80000000	0.50000000	220.3	126.0	188.8	204.1	171.0	
33	 835	 326	83.5000000	32.6000000	0.34000000	0.64031242	0.50000000	128.66	1.77249199	1.74729840	0.70000000	0.60000000	0.70000000	0.50000000	223.3	73.1	113.2	148.8	104.5	
34	 261	 296	26.1000000	29.6000000	0.50000000	0.98488578	0.44721360	66.04	2.43745133	2.33679406	0.70000000	1.00000000	0.60000000	0.50990195	218.6	88.8	139.1	165.3	126.2	
35	 167	 256	16.7000000	25.6000000	0.86000000	1.43178211	0.70000000	12.09	3.35858423	3.32985999	1.50000000	0.70000000	1.40000000	0.60000000	231.5	91.4	146.7	182.2	133.3	
36	 419	 254	41.9000000	25.4000000	0.56000000	0.98488578	0.63245553	66.04	2.38446171	2.38446171	0.60000000	1.00000000	0.60000000	0.50990195	222.1	108.4	166.3	191.3	151.0	
37	1167	 232	116.700000	23.2000000	0.34000000	0.70710678	0.56568542	135.00	1.68964928	1.68964928	0.60000000	0.60000000	0.60000000	0.50000000	218.4	91.6	142.1	179.2	130.3	
38	 865	 226	86.5000000	22.6000000	0.39000000	0.67082039	0.44721360	116.57	1.96511296	1.92948384	0.70000000	0.70000000	0.70000000	0.60000000	215.4	89.6	140.4	169.5	127.7	
39	 404	 210	40.4000000	21.0000000	0.62000000	0.98488578	0.63245553	113.96	2.60091321	2.52295299	0.80000000	1.00000000	0.80000000	0.70000000	221.0	98.9	151.9	179.8	138.5	
40	 506	 211	50.6000000	21.1000000	0.56000000	0.86023253	0.58309519	35.54	2.31739842	2.29511084	0.90000000	0.80000000	0.90000000	0.70000000	215.5	96.7	147.5	170.9	134.2	
41	 316	 204	31.6000000	20.4000000	1.96000000	3.13209195	0.63245553	16.70	6.86067686	6.66597178	3.10000000	1.20000000	2.50000000	0.85440037	236.2	90.2	141.5	174.7	129.1	
42	 260	 171	26.0000000	17.1000000	0.83000000	1.36014705	0.64031242	53.97	3.31539903	3.24340508	1.00000000	1.20000000	0.90000000	0.67082039	225.1	82.8	132.8	162.9	120.4	
43	 204	 171	20.4000000	17.1000000	0.18000000	0.44721360	0.31622777	153.43	1.09748369	1.09748369	0.50000000	0.40000000	0.50000000	0.30000000	209.1	72.3	108.0	139.6	100.2	
44	1123	 143	112.300000	14.3000000	0.41000000	0.76157731	0.53851648	113.20	2.00575994	1.98402818	0.60000000	0.80000000	0.60000000	0.50000000	215.3	82.9	134.1	169.8	122.0	
45	1088	 108	108.800000	10.8000000	0.57000000	0.98488578	0.60827625	113.96	2.66217077	2.56690980	0.80000000	1.00000000	0.60000000	0.72801099	217.3	86.6	136.2	165.5	123.8	
46	 218	  94	21.8000000	9.40000000	1.38000000	1.74928557	0.89442719	149.04	4.50193027	4.24834938	1.60000000	1.40000000	1.50000000	0.94339811	226.8	94.5	150.0	183.6	136.3	
47	 285	  80	28.5000000	8.00000000	0.83000000	1.55241747	0.80622577	14.93	3.92208562	3.63495680	1.60000000	0.80000000	1.50000000	0.70000000	225.4	80.5	123.5	150.2	112.9	
48	 777	  51	77.7000000	5.10000000	0.71000000	1.08166538	0.80622577	123.69	2.92060281	2.80255730	1.00000000	1.00000000	1.00000000	0.78102497	223.6	82.2	128.6	157.0	117.2	
49	 976	  27	97.6000000	2.70000000	0.55000000	0.86023253	0.58309519	54.46	2.37882440	2.35653681	0.90000000	0.80000000	0.90000000	0.70000000	217.8	93.3	147.2	175.4	133.4	
50	1052	  22	105.200000	2.20000000	0.47000000	0.80622577	0.67082039	119.74	2.31150474	2.23063851	0.80000000	0.80000000	0.80000000	0.64031242	219.3	90.8	140.7	175.2	128.9	

#8
liczenie
obiekt�w (w)	udzia� punkt�w	pole obrazu(mm�)	
   47	100.00	12288.0000
nr.	x(pix.):	y(pix.):	x(mm):	y(mm):	powierzchnia:(mm�)	d�ugo��:(mm)	szeroko��:(mm)	k�t:(�)	obw�d:(mm)	obw�d C.:(mm)	�rednica Fereta H(mm)	�rednica Fereta V(mm)	�redn. Martina:(mm)	�redn. sitowa:(mm)	�rednia jaskrawo��	R	G	B	Y	
1	 613	 948	61.3000000	94.8000000	0.57000000	0.98488578	0.63245553	66.04	2.56263554	2.49795817	0.80000000	1.00000000	0.80000000	0.72111026	218.4	97.3	152.6	178.5	138.2	
2	 399	 939	39.9000000	93.9000000	0.37000000	0.70710678	0.40000000	98.13	1.80972544	1.80972544	0.60000000	0.80000000	0.60000000	0.50000000	214.2	80.2	124.3	160.3	114.5	
3	1117	 908	111.700000	90.8000000	0.64000000	1.33416641	0.60000000	167.01	3.25276810	3.15920162	1.40000000	0.60000000	1.40000000	0.50000000	224.2	80.3	124.6	153.1	113.9	
4	 353	 905	35.3000000	90.5000000	0.51000000	0.86023253	0.50000000	125.54	2.27979282	2.25459923	0.80000000	0.80000000	0.70000000	0.63245553	221.4	100.2	154.4	183.5	140.6	
5	 107	 888	10.7000000	88.8000000	1.26000000	1.38924440	1.02956301	30.26	4.01262246	3.79089070	1.40000000	1.20000000	1.40000000	1.10000000	229.5	113.5	163.5	185.9	150.2	
6	 913	 869	91.3000000	86.9000000	0.63000000	1.08166538	0.72111026	33.69	2.74636888	2.62808956	1.00000000	0.80000000	1.00000000	0.72801099	224.3	89.6	140.7	169.8	127.9	
7	 944	 868	94.4000000	86.8000000	0.45000000	0.80622577	0.44721360	150.26	2.10001599	2.07482240	0.80000000	0.70000000	0.80000000	0.60000000	220.0	96.6	148.2	178.8	135.3	
8	1049	 862	104.900000	86.2000000	0.21000000	0.50000000	0.31622777	36.87	1.24628407	1.24628407	0.50000000	0.50000000	0.50000000	0.40000000	204.1	67.0	100.3	135.0	93.6	
9	 137	 838	13.7000000	83.8000000	0.73000000	1.20415946	0.70710678	41.63	2.98018251	2.95640546	1.00000000	1.10000000	0.70000000	0.67082039	223.6	82.4	132.5	164.4	120.3	
10	 844	 821	84.4000000	82.1000000	0.13000000	0.42426407	0.28284271	45.00	1.03071358	0.94787087	0.40000000	0.40000000	0.40000000	0.30000000	196.2	70.3	102.4	132.2	95.5	
14	 820	 778	82.0000000	77.8000000	0.17000000	0.44721360	0.31622777	63.43	1.28191319	1.24628407	0.50000000	0.50000000	0.50000000	0.42426407	199.1	73.3	107.2	129.8	99.1	
15	 296	 772	29.6000000	77.2000000	0.89000000	1.33416641	0.80622577	77.01	3.24588646	3.22807191	0.80000000	1.40000000	0.80000000	0.70000000	227.1	89.2	144.4	176.2	130.6	
16	1017	 777	101.700000	77.7000000	0.17000000	0.44721360	0.22360680	26.57	1.11224175	1.09442719	0.50000000	0.50000000	0.50000000	0.28284271	193.4	69.0	105.8	121.5	96.0	
18	 740	 772	74.0000000	77.2000000	0.11000000	0.36055513	0.10000000	33.69	0.79907048	0.79907048	0.40000000	0.30000000	0.40000000	0.20000000	196.2	72.5	106.5	131.5	98.5	
23	 656	 704	65.6000000	70.4000000	0.62000000	1.02956301	0.58309519	119.05	2.72055691	2.61674115	0.80000000	1.00000000	0.80000000	0.67082039	224.1	96.0	148.5	177.0	135.2	
26	 627	 679	62.7000000	67.9000000	0.92000000	1.28062485	0.64031242	51.34	3.31646890	3.25713154	1.10000000	1.20000000	1.00000000	0.72111026	227.4	91.2	148.4	175.9	133.5	
27	 836	 676	83.6000000	67.6000000	0.52000000	1.02956301	0.53851648	29.05	2.34729840	2.32556664	1.00000000	0.70000000	0.90000000	0.60000000	221.2	105.0	159.9	182.1	145.2	
30	  78	 618	7.80000000	61.8000000	1.19000000	1.40356688	0.80000000	 4.09	3.75560062	3.69768392	1.50000000	1.00000000	1.50000000	0.90000000	236.3	111.2	165.3	188.4	150.9	
31	 212	 605	21.2000000	60.5000000	0.58000000	0.92195445	0.56568542	40.60	2.38572928	2.36791472	0.80000000	0.80000000	0.80000000	0.70000000	223.9	105.7	165.1	190.4	149.4	
32	 744	 557	74.4000000	55.7000000	0.17000000	0.44721360	0.31622777	153.43	1.10486272	1.10486272	0.50000000	0.40000000	0.50000000	0.30000000	209.2	81.4	118.4	142.9	109.4	
33	1015	 546	101.500000	54.6000000	0.55000000	1.02956301	0.44721360	119.05	2.59415494	2.54535568	0.80000000	1.00000000	0.70000000	0.58309519	215.6	93.1	143.9	171.2	131.1	
34	 328	 533	32.8000000	53.3000000	0.96000000	1.84390889	0.50000000	167.47	4.07716725	3.99898536	1.90000000	0.80000000	1.60000000	0.63245553	227.5	79.6	121.4	146.1	111.0	
35	 508	 486	50.8000000	48.6000000	1.08000000	1.76918060	0.56568542	42.71	4.07412741	4.01522617	1.50000000	1.40000000	1.00000000	0.70710678	226.0	101.1	156.8	180.9	142.0	
36	 427	 471	42.7000000	47.1000000	3.58000000	6.46374504	1.08166538	34.92	13.6235155	13.2836362	5.40000000	3.80000000	1.10000000	1.08166538	230.2	82.2	126.5	154.3	115.7	
37	 933	 475	93.3000000	47.5000000	0.44000000	0.80622577	0.44721360	60.26	1.99814096	1.99814096	0.80000000	0.80000000	0.80000000	0.56568542	221.2	92.0	143.8	171.9	130.7	
38	 118	 453	11.8000000	45.3000000	0.64000000	1.11803399	0.60000000	169.70	2.85327688	2.74016509	1.20000000	0.80000000	1.20000000	0.70000000	223.3	88.6	140.2	170.7	127.3	
39	  55	 420	5.50000000	42.0000000	0.62000000	1.02956301	0.67082039	29.05	2.58309866	2.57918145	1.10000000	0.70000000	1.10000000	0.60000000	230.9	95.9	148.2	182.2	135.6	
40	 486	 380	48.6000000	38.0000000	0.55000000	0.89442719	0.63245553	26.57	2.28860265	2.27078809	0.90000000	0.80000000	0.90000000	0.80622577	216.5	118.2	177.8	193.9	161.1	
41	  50	 357	5.00000000	35.7000000	0.20000000	0.53851648	0.30000000	21.80	1.25671960	1.25671960	0.60000000	0.40000000	0.50000000	0.30000000	212.8	78.7	112.6	141.7	105.1	
42	 887	 320	88.7000000	32.0000000	0.54000000	0.98488578	0.53851648	23.96	2.32024575	2.32024575	1.00000000	0.60000000	1.00000000	0.50000000	229.9	96.5	150.6	177.0	136.6	
43	 414	 305	41.4000000	30.5000000	0.86000000	1.30384048	0.72111026	147.53	3.67606813	3.20531225	1.30000000	1.10000000	0.90000000	0.86023253	220.0	93.6	143.6	172.9	131.2	
44	 223	 283	22.3000000	28.3000000	0.64000000	1.06301458	0.56568542	41.19	2.54798831	2.54601182	1.00000000	0.80000000	1.00000000	0.70000000	226.7	82.3	129.8	164.7	118.8	
45	 367	 272	36.7000000	27.2000000	1.31000000	1.52643375	0.89442719	58.39	3.99575773	3.89798669	1.40000000	1.40000000	1.40000000	0.98994949	228.7	102.8	162.1	186.5	146.3	
46	  87	 265	8.70000000	26.5000000	0.52000000	0.98994949	0.70710678	45.00	2.40459047	2.39415494	0.80000000	0.80000000	0.60000000	0.63245553	222.5	103.6	160.5	189.5	145.8	
47	 749	 231	74.9000000	23.1000000	1.69000000	1.96468827	0.92195445	104.74	4.79085133	4.70667116	1.10000000	2.00000000	1.10000000	1.00000000	227.8	82.8	139.2	170.6	125.0	
48	 378	 219	37.8000000	21.9000000	0.10000000	0.31622777	0.10000000	108.43	0.78863495	0.66502815	0.30000000	0.40000000	0.30000000	0.20000000	165.0	76.7	103.8	116.3	96.5	
49	1003	 178	100.300000	17.8000000	0.33000000	0.70710678	0.42426407	45.00	1.70739502	1.70739502	0.70000000	0.60000000	0.70000000	0.56568542	213.4	81.1	128.9	152.2	116.5	
50	 903	 168	90.3000000	16.8000000	0.90000000	2.66270539	0.31622777	34.29	5.47131133	5.22459741	2.30000000	1.60000000	0.60000000	0.50000000	212.6	62.2	100.7	120.4	90.8	
51	 924	 169	92.4000000	16.9000000	0.50000000	0.82462113	0.70710678	165.96	2.28296015	2.22504345	0.90000000	0.80000000	0.80000000	0.70000000	221.4	84.4	131.7	157.5	119.7	
52	 221	 145	22.1000000	14.5000000	0.92000000	1.36014705	0.72111026	53.97	3.35549103	3.31044084	1.20000000	1.20000000	1.10000000	0.84852814	230.1	94.0	148.4	181.1	135.0	
53	 695	 140	69.5000000	14.0000000	0.75000000	1.20415946	0.64031242	48.37	2.87091179	2.84415118	1.00000000	1.00000000	1.00000000	0.72111026	224.7	90.0	142.4	167.0	128.7	
54	1037	 135	103.700000	13.5000000	0.62000000	1.06301458	0.64031242	138.81	2.57734532	2.55429548	1.00000000	0.80000000	1.00000000	0.67082039	225.8	86.2	136.6	164.9	123.9	
55	1235	  83	123.500000	8.30000000	0.62000000	1.47648231	0.44721360	61.70	3.20947171	3.18122162	0.80000000	1.40000000	0.60000000	0.44721360	216.7	73.6	118.0	145.7	107.2	
56	  57	  51	5.70000000	5.10000000	1.18000000	1.58113883	0.72801099	108.43	3.93629700	3.88192065	1.00000000	1.60000000	0.90000000	0.92195445	227.6	74.4	117.2	154.3	107.8	

#9
liczenie
obiekt�w (w)	udzia� punkt�w	pole obrazu(mm�)	
   43	100.00	12288.0000
nr.	x(pix.):	y(pix.):	x(mm):	y(mm):	powierzchnia:(mm�)	d�ugo��:(mm)	szeroko��:(mm)	k�t:(�)	obw�d:(mm)	obw�d C.:(mm)	�rednica Fereta H(mm)	�rednica Fereta V(mm)	�redn. Martina:(mm)	�redn. sitowa:(mm)	�rednia jaskrawo��	R	G	B	Y	
1	 848	 938	84.8000000	93.8000000	0.41000000	0.76157731	0.44721360	156.80	1.98565388	1.98402818	0.80000000	0.60000000	0.80000000	0.50000000	218.2	94.2	130.8	156.4	121.9	
2	 114	 887	11.4000000	88.7000000	0.72000000	1.07703296	0.63245553	111.80	2.79745139	2.78961698	0.80000000	1.10000000	0.70000000	0.70000000	221.1	89.4	130.8	157.6	120.8	
3	 779	 875	77.9000000	87.5000000	0.39000000	0.72801099	0.50000000	105.95	2.04535455	2.01568794	0.70000000	0.80000000	0.60000000	0.60000000	213.0	99.2	138.9	158.0	128.5	
4	1158	 795	115.800000	79.5000000	0.85000000	1.30384048	0.72111026	122.47	3.51646890	3.35162127	1.20000000	1.20000000	1.00000000	0.86023253	224.6	94.0	136.2	164.8	126.0	
5	 762	 795	76.2000000	79.5000000	0.51000000	0.80622577	0.53851648	119.74	2.21970559	2.20189103	0.80000000	0.80000000	0.80000000	0.67082039	219.8	108.0	153.2	174.2	141.4	
6	 734	 775	73.4000000	77.5000000	1.00000000	1.36014705	0.86023253	53.97	3.62299661	3.49829470	1.30000000	1.20000000	1.20000000	0.80622577	229.0	105.8	148.5	173.1	137.7	
7	 994	 754	99.4000000	75.4000000	0.46000000	1.00000000	0.36055513	53.13	2.33165909	2.26860742	0.80000000	0.90000000	0.70000000	0.56568542	216.3	88.3	122.5	145.4	114.1	
8	  97	 750	9.70000000	75.0000000	0.59000000	1.04403065	0.60827625	16.70	2.63666710	2.55382439	1.10000000	0.60000000	1.00000000	0.50000000	227.7	92.4	133.1	159.9	123.2	
10	 740	 649	74.0000000	64.9000000	0.56000000	0.86023253	0.72111026	35.54	2.31186179	2.31186179	0.80000000	0.80000000	0.80000000	0.70000000	227.6	112.5	157.5	174.4	145.2	
11	 966	 647	96.6000000	64.7000000	0.20000000	0.50990195	0.30000000	78.69	1.26409863	1.26409863	0.50000000	0.50000000	0.50000000	0.40000000	206.3	99.7	138.8	159.6	128.8	
12	 149	 573	14.9000000	57.3000000	0.48000000	0.80622577	0.58309519	119.74	2.18137962	2.17400058	0.70000000	0.80000000	0.70000000	0.60000000	223.3	86.5	123.3	154.6	115.1	
13	1017	 473	101.700000	47.3000000	0.52000000	0.89442719	0.67082039	153.43	2.43405832	2.33985056	0.90000000	0.80000000	0.90000000	0.64031242	219.8	102.0	143.5	166.7	132.9	
14	 742	 455	74.2000000	45.5000000	0.61000000	1.11803399	0.53851648	26.57	2.66904614	2.60822343	1.10000000	0.80000000	0.90000000	0.70710678	219.1	108.6	146.9	168.1	137.1	
15	 692	 437	69.2000000	43.7000000	0.63000000	1.00000000	0.72111026	126.87	2.78503396	2.68344716	1.00000000	0.90000000	0.80000000	0.78102497	217.4	106.7	145.9	165.3	135.6	
16	 326	 421	32.6000000	42.1000000	0.70000000	1.14017543	0.60827625	74.74	2.88176931	2.83876116	0.80000000	1.20000000	0.80000000	0.70000000	219.7	95.7	136.2	156.1	125.6	
17	1114	 395	111.400000	39.5000000	0.91000000	1.84390889	0.44721360	139.40	4.14202581	3.97922661	1.50000000	1.40000000	0.80000000	0.58309519	219.6	80.1	111.9	131.2	104.0	
18	 674	 392	67.4000000	39.2000000	0.70000000	1.14017543	0.58309519	127.87	2.94706504	2.85948172	1.10000000	1.00000000	0.90000000	0.70710678	217.5	104.4	142.6	160.8	132.5	
19	1054	 379	105.400000	37.9000000	0.79000000	1.42126704	0.50000000	50.71	3.31354803	3.21983540	1.10000000	1.20000000	0.90000000	0.70710678	222.8	93.7	133.4	156.8	123.5	
20	1065	 379	106.500000	37.9000000	0.21000000	0.44721360	0.44721360	116.57	1.28704816	1.28704816	0.50000000	0.50000000	0.50000000	0.40000000	217.2	83.6	111.6	132.6	105.0	
21	 796	 373	79.6000000	37.3000000	0.13000000	0.36055513	0.14142136	123.69	0.93005631	0.93005631	0.40000000	0.40000000	0.40000000	0.28284271	176.6	84.5	109.5	121.3	102.8	
22	  12	 362	1.20000000	36.2000000	0.77000000	1.14017543	0.70710678	164.74	3.15759630	2.93791769	1.20000000	1.00000000	1.20000000	0.84852814	222.6	101.0	140.1	164.5	130.4	
23	 261	 361	26.1000000	36.1000000	0.79000000	1.20830460	0.72801099	114.44	3.15361029	3.08676439	1.10000000	1.20000000	1.00000000	0.72111026	221.7	91.2	130.0	150.3	120.0	
24	 650	 289	65.0000000	28.9000000	1.24000000	1.43178211	0.98488578	24.78	3.83671432	3.75241475	1.40000000	1.20000000	1.30000000	1.04403065	233.5	111.5	155.9	179.2	144.5	
25	 769	 266	76.9000000	26.6000000	0.85000000	1.08166538	0.80622577	56.31	3.05550584	2.97911264	1.10000000	1.00000000	1.10000000	0.90000000	228.1	125.2	171.4	182.1	158.1	
26	 722	 243	72.2000000	24.3000000	0.19000000	0.50000000	0.28284271	53.13	1.07966913	1.07966913	0.40000000	0.50000000	0.40000000	0.30000000	214.7	86.3	112.3	126.9	105.6	
27	1255	 228	125.500000	22.8000000	0.84000000	1.20830460	0.63245553	65.56	3.22964017	3.18159905	1.10000000	1.20000000	0.90000000	0.76157731	225.0	82.8	118.0	144.4	109.8	
28	1032	 221	103.200000	22.1000000	0.18000000	0.44721360	0.31622777	116.57	1.17387689	1.17387689	0.40000000	0.50000000	0.40000000	0.30000000	202.9	75.4	102.2	123.4	95.9	
29	1001	 172	100.100000	17.2000000	0.50000000	1.02956301	0.53851648	119.05	2.38460066	2.38328258	0.60000000	1.00000000	0.60000000	0.50000000	219.0	90.2	126.0	144.9	116.8	
30	 307	 137	30.7000000	13.7000000	0.13000000	0.42426407	0.14142136	45.00	0.90710678	0.90710678	0.50000000	0.40000000	0.40000000	0.28284271	174.5	75.9	101.6	116.5	95.0	
31	 366	 104	36.6000000	10.4000000	1.61000000	3.36005952	0.72111026	126.53	7.80564190	7.17530997	2.20000000	2.80000000	0.50000000	0.78102497	217.0	79.3	111.8	129.9	103.5	
32	 633	 102	63.3000000	10.2000000	1.20000000	1.52315462	0.85440037	156.80	3.89502538	3.85735097	1.50000000	1.20000000	1.50000000	0.98488578	229.8	103.3	150.0	174.6	138.1	
33	 215	  94	21.5000000	9.40000000	0.68000000	1.02956301	0.67082039	119.05	2.77323561	2.72463712	1.00000000	1.00000000	0.80000000	0.78102497	224.0	91.2	133.6	158.4	123.0	
34	 391	  94	39.1000000	9.40000000	0.55000000	1.83847763	0.41231056	22.38	3.53159028	3.45585902	1.80000000	0.80000000	0.70000000	0.44721360	215.5	78.7	108.8	125.1	101.0	
35	 711	  85	71.1000000	8.50000000	0.76000000	1.28062485	0.58309519	51.34	3.22269327	3.12456830	1.00000000	1.20000000	0.80000000	0.67082039	225.6	94.3	136.1	158.2	125.4	
36	 336	  87	33.6000000	8.70000000	0.20000000	0.50000000	0.28284271	143.13	1.15214513	1.15214513	0.50000000	0.40000000	0.50000000	0.30000000	214.2	83.8	112.6	134.7	105.9	
37	1238	  28	123.800000	2.80000000	0.19000000	0.44721360	0.31622777	116.57	1.25366311	1.23584855	0.50000000	0.50000000	0.50000000	0.40000000	197.9	76.1	103.9	130.1	97.9	
38	 105	  23	10.5000000	2.30000000	0.69000000	1.08166538	0.72111026	33.69	2.75796846	2.73774529	1.10000000	0.80000000	1.00000000	0.70000000	220.1	113.8	162.8	180.2	149.4	

#10
liczenie
obiekt�w (w)	udzia� punkt�w	pole obrazu(mm�)	
   44	100.00	12288.0000
nr.	x(pix.):	y(pix.):	x(mm):	y(mm):	powierzchnia:(mm�)	d�ugo��:(mm)	szeroko��:(mm)	k�t:(�)	obw�d:(mm)	obw�d C.:(mm)	�rednica Fereta H(mm)	�rednica Fereta V(mm)	�redn. Martina:(mm)	�redn. sitowa:(mm)	�rednia jaskrawo��	R	G	B	Y	
1	1031	 946	103.100000	94.6000000	0.51000000	0.92195445	0.50000000	102.53	2.26446228	2.26446228	0.60000000	1.00000000	0.60000000	0.50000000	216.4	91.5	145.2	174.0	131.5	
2	 718	 890	71.8000000	89.0000000	0.82000000	1.25299641	0.80622577	118.61	3.38570744	3.28901567	1.00000000	1.20000000	0.70000000	0.80622577	226.2	98.6	149.6	176.1	136.5	
3	 687	 870	68.7000000	87.0000000	0.57000000	0.98488578	0.53851648	66.04	2.44187088	2.44187088	0.60000000	1.00000000	0.60000000	0.50000000	226.7	105.7	161.2	188.5	146.8	
4	1231	 739	123.100000	73.9000000	0.78000000	1.17046999	0.72801099	70.02	3.22940564	3.08399827	1.00000000	1.20000000	1.00000000	0.86023253	227.1	84.5	134.9	166.3	122.6	
5	 353	 735	35.3000000	73.5000000	1.23000000	1.97230829	0.67082039	149.53	4.48275759	4.38235393	1.80000000	1.20000000	1.20000000	0.76157731	229.1	84.1	132.4	164.5	120.8	
6	 293	 696	29.3000000	69.6000000	0.56000000	1.01980390	0.50000000	11.31	2.50350579	2.48569123	1.10000000	0.60000000	1.10000000	0.50000000	227.3	98.3	151.4	183.1	138.4	
7	1208	 681	120.800000	68.1000000	0.64000000	1.22065556	0.58309519	34.99	2.69276066	2.66457938	1.10000000	0.80000000	1.00000000	0.72111026	226.5	92.3	144.1	172.8	131.0	
8	 957	 668	95.7000000	66.8000000	0.95000000	1.36014705	0.72111026	36.03	3.36354214	3.31921591	1.30000000	1.00000000	1.10000000	0.76157731	227.7	128.5	183.9	198.5	168.2	
9	1098	 645	109.800000	64.5000000	0.65000000	1.14017543	0.64031242	52.13	2.77278023	2.74517803	0.80000000	1.10000000	0.70000000	0.53851648	226.2	89.1	146.0	174.0	131.4	
10	 793	 630	79.3000000	63.0000000	0.97000000	1.72626765	0.60000000	10.01	3.87417476	3.87417476	1.80000000	0.60000000	1.80000000	0.50000000	233.3	90.1	137.9	164.8	125.9	
11	 830	 533	83.0000000	53.3000000	0.60000000	1.11803399	0.60000000	10.30	2.53323650	2.49313436	1.20000000	0.80000000	0.90000000	0.56568542	226.4	104.8	160.3	181.4	145.3	
12	 652	 527	65.2000000	52.7000000	0.52000000	0.80622577	0.58309519	60.26	2.21278193	2.19496737	0.80000000	0.80000000	0.80000000	0.70000000	222.3	93.0	143.3	168.5	130.3	
13	1114	 526	111.400000	52.6000000	0.42000000	0.72801099	0.60000000	15.95	2.04881638	2.03100182	0.80000000	0.70000000	0.80000000	0.60000000	212.1	101.9	162.3	182.3	145.7	
14	1074	 505	107.400000	50.5000000	0.75000000	1.14017543	0.70710678	105.26	2.95127049	2.94257337	0.80000000	1.20000000	0.80000000	0.80622577	222.1	114.7	176.2	195.3	159.1	
15	 652	 476	65.2000000	47.6000000	0.61000000	1.02956301	0.53851648	60.95	2.67252463	2.55312328	0.90000000	1.00000000	0.80000000	0.70710678	221.0	102.6	155.2	175.7	141.0	
16	 793	 458	79.3000000	45.8000000	0.27000000	0.58309519	0.31622777	30.96	1.50393320	1.50393320	0.60000000	0.60000000	0.60000000	0.50000000	208.3	78.6	118.8	145.1	109.0	
17	 740	 389	74.0000000	38.9000000	0.72000000	1.14017543	0.60827625	105.26	2.90150167	2.89423975	0.80000000	1.20000000	0.60000000	0.70000000	225.5	97.1	148.2	173.1	135.0	
18	 874	 386	87.4000000	38.6000000	0.48000000	0.86023253	0.64031242	35.54	2.14326409	2.13196786	0.80000000	0.70000000	0.80000000	0.60000000	213.9	110.0	167.4	184.6	151.4	
19	1114	 368	111.400000	36.8000000	0.14000000	0.41231056	0.20000000	104.04	1.06502815	1.05764912	0.40000000	0.50000000	0.40000000	0.30000000	197.8	71.4	105.6	132.0	97.7	
20	 525	 304	52.5000000	30.4000000	0.67000000	1.02956301	0.58309519	60.95	2.69562464	2.65867744	0.90000000	1.00000000	0.80000000	0.72111026	227.0	114.7	162.8	179.7	149.6	
21	 158	 295	15.8000000	29.5000000	0.47000000	0.92195445	0.42426407	49.40	2.42784334	2.24184681	0.90000000	0.80000000	0.70000000	0.56568542	214.5	79.0	120.2	153.4	110.9	
22	 364	 293	36.4000000	29.3000000	0.50000000	0.80622577	0.67082039	29.74	2.21488836	2.21041534	0.80000000	0.80000000	0.80000000	0.70000000	220.4	93.0	143.9	173.1	131.2	
23	 383	 287	38.3000000	28.7000000	0.17000000	0.50000000	0.14142136	36.87	1.11876007	1.11876007	0.50000000	0.40000000	0.50000000	0.30000000	204.7	68.4	99.4	123.6	92.2	
24	1234	 237	123.400000	23.7000000	0.76000000	1.20830460	0.63245553	114.44	3.10560479	3.02309530	0.80000000	1.20000000	0.80000000	0.70000000	226.5	89.1	140.8	171.5	128.1	
25	 686	 219	68.6000000	21.9000000	0.57000000	0.86023253	0.64031242	35.54	2.29393013	2.29393013	0.80000000	0.80000000	0.80000000	0.70000000	222.1	106.8	162.1	180.9	146.9	
26	 419	 194	41.9000000	19.4000000	1.59000000	2.10950231	0.89442719	121.43	5.30172110	4.98841559	1.60000000	1.90000000	1.00000000	0.94339811	229.2	84.1	130.5	159.8	119.1	
28	1061	 179	106.100000	17.9000000	0.43000000	0.80622577	0.58309519	60.26	2.02625341	2.02625341	0.60000000	0.80000000	0.60000000	0.60000000	219.3	112.8	168.1	189.3	153.2	
29	 799	 141	79.9000000	14.1000000	1.19000000	1.61554944	0.94868330	68.20	4.24987620	4.02525966	1.00000000	1.60000000	0.80000000	0.90000000	227.7	90.4	145.4	175.5	131.5	
30	1136	 121	113.600000	12.1000000	0.22000000	0.53851648	0.30000000	111.80	1.44628407	1.42109048	0.50000000	0.60000000	0.50000000	0.40000000	201.2	69.7	108.4	144.0	100.1	
31	1169	 118	116.900000	11.8000000	0.41000000	0.72111026	0.58309519	123.69	2.00587705	1.98414528	0.70000000	0.70000000	0.70000000	0.60000000	216.2	83.0	129.8	160.7	118.5	
32	1004	 102	100.400000	10.2000000	0.47000000	0.86023253	0.50000000	144.46	2.22520020	2.20346843	0.80000000	0.70000000	0.80000000	0.60000000	217.4	88.4	137.3	171.1	125.7	
33	 489	  76	48.9000000	7.60000000	0.18000000	0.44721360	0.31622777	116.57	1.08704816	1.08704816	0.40000000	0.50000000	0.40000000	0.31622777	194.4	62.9	90.9	118.7	85.1	
34	1017	  73	101.700000	7.30000000	0.61000000	1.07703296	0.53851648	158.20	2.67043105	2.63348385	1.10000000	0.80000000	1.00000000	0.67082039	221.2	86.2	134.2	164.4	122.4	
35	  27	  62	2.70000000	6.20000000	0.91000000	1.08166538	0.80622577	123.69	3.18534272	3.11016728	1.10000000	1.10000000	1.10000000	0.98994949	230.9	91.8	137.1	173.6	126.9	
36	 762	  41	76.2000000	4.10000000	0.98000000	1.39283883	0.85440037	158.96	3.67288827	3.54473534	1.40000000	1.10000000	1.40000000	0.89442719	225.6	93.0	144.3	178.1	132.0	
37	 770	  22	77.0000000	2.20000000	0.28000000	0.58309519	0.44721360	120.96	1.46099386	1.46099386	0.50000000	0.60000000	0.50000000	0.40000000	215.3	74.7	109.8	144.1	102.5	
