
#1
liczenie
obiektów (w)	udzia³ punktów	pole obrazu(mm²)	
   15	100.00	12288.0000
nr.	x(pix.):	y(pix.):	x(mm):	y(mm):	powierzchnia:(mm²)	d³ugoœæ:(mm)	szerokoœæ:(mm)	k¹t:(°)	obwód:(mm)	obwód C.:(mm)	œrednica Fereta H(mm)	œrednica Fereta V(mm)	œredn. Martina:(mm)	œredn. sitowa:(mm)	œrednia jaskrawoœæ	R	G	B	Y	
1	 164	 937	16.4000000	93.7000000	10.2600000	4.30116263	3.73630834	72.41	13.1245419	12.4665345	4.00000000	4.20000000	4.00000000	3.68917335	234.0	130.5	179.5	190.5	165.4	
2	 329	 919	32.9000000	91.9000000	0.54000000	0.92195445	0.56568542	40.60	2.41674115	2.39730090	0.90000000	0.80000000	0.90000000	0.64031242	226.0	84.2	133.0	173.2	122.1	
4	1166	 764	116.600000	76.4000000	1.06000000	1.67630546	0.82462113	72.65	4.32834656	4.14471564	1.00000000	1.70000000	0.60000000	0.92195445	225.7	75.8	119.7	151.5	109.4	
5	 294	 668	29.4000000	66.8000000	0.86000000	1.22065556	0.72111026	34.99	3.23809922	3.16756820	1.20000000	1.00000000	1.20000000	0.72801099	229.1	91.8	147.6	180.2	133.8	
6	 113	 604	11.3000000	60.4000000	0.98000000	1.22065556	0.86023253	34.99	3.33730300	3.28385932	1.20000000	1.00000000	1.10000000	0.90000000	228.7	91.3	147.6	174.7	133.0	
7	 456	 585	45.6000000	58.5000000	3.30000000	3.14006369	1.20415946	99.16	7.49114336	7.26493249	1.30000000	3.20000000	1.30000000	1.20000000	238.3	94.4	149.8	181.4	136.0	
8	 799	 500	79.9000000	50.0000000	1.41000000	1.80277564	0.92195445	160.56	4.37579588	4.25612264	1.80000000	1.20000000	1.60000000	0.94339811	228.5	98.2	153.8	182.7	139.6	
9	 987	 407	98.7000000	40.7000000	0.84000000	1.23693169	0.82462113	14.04	3.47005216	3.15250985	1.30000000	0.80000000	1.20000000	0.70000000	226.5	107.0	164.0	185.1	148.5	
10	 106	 364	10.6000000	36.4000000	0.82000000	1.06301458	0.84852814	41.19	2.98231574	2.95666678	1.00000000	1.00000000	1.00000000	0.89442719	221.2	85.2	138.3	170.9	125.2	
11	 449	 256	44.9000000	25.6000000	2.29000000	2.52982213	1.01980390	161.57	6.22980225	5.90661875	2.50000000	1.40000000	2.10000000	1.21655251	236.4	99.6	154.6	184.5	140.7	
12	1007	 237	100.700000	23.7000000	0.82000000	1.36014705	0.58309519	53.97	3.15778881	3.11824249	1.00000000	1.20000000	0.90000000	0.58309519	225.6	94.6	151.0	174.4	136.0	
13	 979	 188	97.9000000	18.8000000	1.39000000	2.05182845	0.92195445	43.03	5.40630442	4.95861276	1.80000000	1.60000000	1.40000000	1.06301458	230.5	84.1	133.9	164.2	121.6	
14	 789	 125	78.9000000	12.5000000	1.58000000	2.54950976	0.70000000	11.31	5.54240998	5.48735997	2.60000000	0.80000000	2.60000000	0.70000000	232.4	86.5	135.9	166.2	123.7	

#2
liczenie
obiektów (w)	udzia³ punktów	pole obrazu(mm²)	
   64	100.00	12288.0000
nr.	x(pix.):	y(pix.):	x(mm):	y(mm):	powierzchnia:(mm²)	d³ugoœæ:(mm)	szerokoœæ:(mm)	k¹t:(°)	obwód:(mm)	obwód C.:(mm)	œrednica Fereta H(mm)	œrednica Fereta V(mm)	œredn. Martina:(mm)	œredn. sitowa:(mm)	œrednia jaskrawoœæ	R	G	B	Y	
1	 183	 918	18.3000000	91.8000000	0.36000000	0.72111026	0.36055513	146.31	1.79695011	1.79695011	0.70000000	0.60000000	0.70000000	0.50000000	221.5	64.9	94.9	132.0	89.4	
2	 510	 841	51.0000000	84.1000000	6.52000000	10.2961158	2.53179778	168.80	24.6194273	22.0632146	10.2000000	3.70000000	6.00000000	2.64764046	228.4	86.3	121.4	136.5	112.0	
3	1085	 848	108.500000	84.8000000	0.10000000	0.31622777	0.10000000	161.57	0.79907048	0.79907048	0.40000000	0.30000000	0.40000000	0.20000000	189.4	80.1	114.0	123.2	104.2	
4	 413	 839	41.3000000	83.9000000	0.31000000	0.64031242	0.36055513	141.34	1.73650582	1.70393320	0.70000000	0.60000000	0.70000000	0.44721360	213.3	83.8	119.4	143.9	110.9	
5	  82	 826	8.20000000	82.6000000	2.11000000	2.08086520	1.22065556	35.22	5.61182207	5.41847003	1.90000000	1.80000000	1.80000000	1.20415946	234.7	99.6	144.0	168.7	132.8	
6	 113	 791	11.3000000	79.1000000	2.78000000	2.31948270	1.40356688	97.43	6.08336601	5.98863091	1.50000000	2.40000000	1.50000000	1.40356688	237.0	107.1	154.1	175.2	141.7	
7	 567	 796	56.7000000	79.6000000	0.77000000	1.04403065	0.82462113	163.30	2.92384793	2.88374579	1.10000000	1.00000000	1.00000000	0.78102497	219.4	100.4	146.0	162.5	133.5	
8	 197	 792	19.7000000	79.2000000	0.51000000	1.00498756	0.60000000	 5.71	2.58782913	2.47729628	1.10000000	0.70000000	1.10000000	0.72111026	212.6	107.7	157.4	174.5	143.7	
9	  21	 788	2.10000000	78.8000000	0.80000000	1.17046999	0.82462113	160.02	3.12029404	3.03122125	1.20000000	1.00000000	1.10000000	0.78102497	223.3	98.0	139.8	159.9	128.9	
10	 567	 738	56.7000000	73.8000000	1.25000000	1.80277564	0.80622577	123.69	4.48969791	4.26922226	1.30000000	1.60000000	0.90000000	0.89442719	228.2	101.4	145.7	164.2	133.8	
11	 240	 735	24.0000000	73.5000000	1.19000000	1.36014705	1.00000000	36.03	3.63189710	3.63027140	1.20000000	1.20000000	1.20000000	1.08166538	232.1	105.5	152.2	170.7	139.6	
12	 411	 726	41.1000000	72.6000000	0.87000000	1.08166538	0.89442719	56.31	3.05972639	3.05525336	1.10000000	1.00000000	1.10000000	0.90000000	228.1	99.7	144.4	162.3	132.3	
13	 527	 713	52.7000000	71.3000000	0.23000000	0.50990195	0.30000000	168.69	1.35606233	1.35606233	0.60000000	0.50000000	0.60000000	0.40000000	216.4	78.4	107.9	129.3	100.9	
14	  57	 707	5.70000000	70.7000000	0.15000000	0.41231056	0.20000000	165.96	1.11876007	1.11876007	0.50000000	0.40000000	0.50000000	0.30000000	192.1	73.0	98.7	115.5	92.3	
15	 578	 704	57.8000000	70.4000000	0.26000000	0.58309519	0.44721360	59.04	1.52912679	1.51131223	0.60000000	0.60000000	0.60000000	0.50990195	194.5	93.6	130.1	139.5	119.6	
16	  84	 697	8.40000000	69.7000000	1.60000000	1.83847763	1.07703296	112.38	4.90776635	4.71891730	1.50000000	1.80000000	1.00000000	1.20830460	230.1	95.9	136.6	157.4	126.1	
17	 102	 650	10.2000000	65.0000000	0.38000000	0.72801099	0.50000000	15.95	1.97400058	1.93837147	0.80000000	0.60000000	0.80000000	0.50000000	218.9	98.9	142.3	158.4	130.5	
18	 308	 603	30.8000000	60.3000000	0.70000000	1.10453610	0.60000000	174.81	2.85490258	2.76069482	1.20000000	0.80000000	1.20000000	0.70000000	222.8	99.4	143.7	161.5	131.8	
19	 870	 588	87.0000000	58.8000000	1.38000000	1.47648231	1.07703296	61.70	4.06304219	3.94466856	1.30000000	1.40000000	1.30000000	1.06301458	226.7	113.3	154.5	174.3	143.7	
20	 587	 561	58.7000000	56.1000000	1.41000000	1.74928557	0.94339811	149.04	4.42325050	4.27886369	1.70000000	1.20000000	1.50000000	1.04403065	230.0	103.4	146.2	164.9	134.8	
21	 419	 527	41.9000000	52.7000000	0.73000000	1.11803399	0.70000000	169.70	3.04558908	2.85893062	1.20000000	0.80000000	1.10000000	0.70000000	224.5	104.3	150.7	167.2	138.0	
22	 781	 520	78.1000000	52.0000000	3.33000000	3.96610640	1.08166538	146.31	10.0297997	8.76420867	3.40000000	2.60000000	1.60000000	1.14017543	232.7	102.4	145.3	165.5	134.1	
23	  51	 513	5.10000000	51.3000000	2.62000000	2.78926514	1.43178211	75.47	7.65529309	6.94656413	1.60000000	2.80000000	0.90000000	1.52970585	233.3	99.6	142.0	163.4	131.0	
24	 185	 508	18.5000000	50.8000000	3.20000000	3.06757233	1.48660687	160.97	8.23830342	7.44531155	3.00000000	2.00000000	2.40000000	1.52315462	232.7	100.7	145.8	165.9	133.8	
25	 885	 511	88.5000000	51.1000000	1.73000000	1.74642492	1.11803399	166.76	5.41859783	4.62428614	1.80000000	1.20000000	1.80000000	1.10000000	232.3	114.1	159.7	177.1	147.3	
26	 734	 491	73.4000000	49.1000000	0.19000000	0.44721360	0.31622777	153.43	1.26409863	1.26409863	0.50000000	0.50000000	0.50000000	0.40000000	204.4	97.7	135.1	144.9	124.3	
27	 795	 478	79.5000000	47.8000000	0.43000000	0.76157731	0.41231056	156.80	2.08871976	2.06698800	0.80000000	0.70000000	0.70000000	0.60000000	217.4	102.6	150.2	168.9	137.3	
28	1260	 445	126.000000	44.5000000	0.51000000	0.98994949	0.42426407	45.00	2.20253891	2.20253891	0.80000000	0.80000000	0.80000000	0.56568542	227.3	92.4	136.8	152.7	124.7	
29	 167	 405	16.7000000	40.5000000	1.03000000	1.39283883	0.82462113	21.04	3.57589276	3.50620839	1.40000000	0.90000000	1.40000000	0.90000000	231.5	112.0	158.6	173.7	145.7	
30	1202	 377	120.200000	37.7000000	0.52000000	0.86023253	0.64031242	144.46	2.33898983	2.29888769	0.80000000	0.80000000	0.80000000	0.70000000	214.6	110.3	163.7	179.5	148.8	
31	1250	 368	125.000000	36.8000000	0.67000000	1.17046999	0.60827625	70.02	2.81923144	2.79618160	0.80000000	1.20000000	0.70000000	0.76157731	216.9	99.8	148.9	165.4	135.3	
33	 280	 335	28.0000000	33.5000000	2.50000000	2.37697286	1.21655251	165.38	6.31119991	5.89684017	2.40000000	1.20000000	2.40000000	1.10000000	241.2	118.3	166.0	183.1	152.9	
34	 431	 330	43.1000000	33.0000000	2.39000000	2.24722051	1.30384048	32.28	5.70581829	5.57638275	2.00000000	1.80000000	1.80000000	1.48660687	235.3	104.2	151.1	172.7	138.8	
35	  40	 330	4.00000000	33.0000000	1.20000000	1.45602198	0.92195445	164.05	3.80512238	3.72516703	1.50000000	1.00000000	1.50000000	0.90000000	235.8	113.8	158.0	176.0	146.1	
36	 166	 301	16.6000000	30.1000000	1.61000000	1.92353841	0.89442719	27.90	5.02272028	4.75747802	1.80000000	1.40000000	1.80000000	1.02956301	232.8	96.7	139.8	162.6	128.8	
37	1124	 297	112.400000	29.7000000	1.14000000	1.42126704	0.86023253	39.29	3.65954674	3.64769468	1.20000000	1.30000000	1.10000000	0.86023253	231.4	112.2	164.8	184.4	150.5	
38	  16	 254	1.60000000	25.4000000	0.95000000	1.25299641	0.85440037	28.61	3.23615850	3.19092138	1.20000000	1.00000000	1.20000000	0.90000000	230.2	108.4	152.7	172.9	141.0	
39	 340	 244	34.0000000	24.4000000	0.71000000	1.23693169	0.60827625	14.04	2.94710071	2.92928615	1.30000000	0.60000000	1.30000000	0.50000000	231.0	107.8	153.8	173.3	141.5	
40	 397	 229	39.7000000	22.9000000	1.36000000	1.47648231	1.07703296	28.30	3.92688777	3.87344410	1.40000000	1.20000000	1.40000000	1.10000000	232.8	113.9	159.1	176.7	146.8	
41	1093	 229	109.300000	22.9000000	0.15000000	0.63245553	0.10000000	71.57	1.34787087	1.29853690	0.40000000	0.70000000	0.30000000	0.31622777	171.7	75.0	105.6	115.3	97.0	
42	 453	 181	45.3000000	18.1000000	0.89000000	1.30384048	0.70000000	175.60	3.20593193	3.17626531	1.40000000	0.90000000	1.40000000	0.80000000	229.2	104.8	150.5	167.3	138.1	
43	1204	 167	120.400000	16.7000000	2.01000000	2.24722051	1.04403065	159.15	5.97043411	5.36741161	2.20000000	1.40000000	2.00000000	1.07703296	233.9	112.3	165.2	188.1	151.2	
44	 996	 163	99.6000000	16.3000000	1.71000000	2.28473193	0.94868330	23.20	5.50581087	5.27013313	2.20000000	1.40000000	1.80000000	1.02956301	235.8	101.6	154.0	179.0	140.3	
45	 134	 154	13.4000000	15.4000000	1.12000000	1.42126704	1.06301458	140.71	3.77689876	3.68269100	1.30000000	1.00000000	1.20000000	0.90000000	235.7	106.4	153.1	172.7	140.6	
46	 212	  96	21.2000000	9.60000000	0.92000000	1.25299641	0.76157731	28.61	3.35723299	3.25564620	1.20000000	1.10000000	1.00000000	0.86023253	227.9	96.0	144.7	167.3	131.9	
47	 189	  87	18.9000000	8.70000000	0.66000000	0.98488578	0.72801099	23.96	2.59911910	2.58130454	1.00000000	0.80000000	1.00000000	0.70000000	226.8	98.4	144.5	159.9	131.7	
48	  32	  77	3.20000000	7.70000000	1.53000000	1.72626765	1.00498756	169.99	4.62747623	4.43708782	1.80000000	1.20000000	1.60000000	1.10000000	232.1	119.8	161.0	176.7	149.7	
49	 864	  78	86.4000000	7.80000000	0.31000000	0.64031242	0.42426407	51.34	1.62109048	1.60979425	0.70000000	0.60000000	0.70000000	0.50000000	216.5	105.7	152.6	168.4	139.7	
50	 761	  71	76.1000000	7.10000000	0.59000000	0.98488578	0.63245553	23.96	2.58045009	2.51515436	1.00000000	0.80000000	0.90000000	0.72111026	222.6	108.6	157.2	172.2	143.6	
51	 868	  63	86.8000000	6.30000000	0.67000000	1.00498756	0.70000000	174.29	2.73414311	2.67622641	1.10000000	0.80000000	1.00000000	0.80000000	224.6	114.5	165.6	182.3	151.4	
52	  66	  56	6.60000000	5.60000000	1.08000000	1.25299641	0.98488578	28.61	3.43958597	3.42089040	1.20000000	1.00000000	1.20000000	0.90000000	233.5	112.1	154.5	170.8	143.0	
53	 428	  39	42.8000000	3.90000000	2.09000000	2.00000000	1.28062485	126.87	5.28194518	5.12186993	1.60000000	1.80000000	1.30000000	1.30000000	234.4	113.9	160.6	179.4	148.1	
54	1064	  44	106.400000	4.40000000	0.42000000	0.80622577	0.53851648	150.26	2.08483206	2.06701750	0.80000000	0.60000000	0.80000000	0.50000000	221.0	101.5	146.3	163.8	134.2	
55	 191	  35	19.1000000	3.50000000	1.87000000	1.74642492	1.31529464	166.76	5.49911844	4.86510899	1.80000000	1.50000000	1.70000000	1.40000000	224.1	119.2	159.4	177.9	148.8	
56	 461	  15	46.1000000	1.50000000	0.82000000	1.26491106	0.72801099	18.43	3.35351455	3.18171176	1.30000000	0.90000000	1.20000000	0.85440037	226.9	110.5	154.4	171.3	142.5	
57	1088	  14	108.800000	1.40000000	0.85000000	1.26491106	0.72801099	161.57	3.28996549	3.17860511	1.30000000	1.00000000	1.10000000	0.78102497	225.5	103.3	149.0	171.2	137.1	
58	 560	  10	56.0000000	1.00000000	0.24000000	0.53851648	0.40000000	68.20	1.39508446	1.39508446	0.50000000	0.60000000	0.50000000	0.40000000	200.7	90.5	127.0	142.0	117.0	
59	 581	   9	58.1000000	0.90000000	0.64000000	1.04403065	0.60827625	163.30	2.69795817	2.65785602	1.10000000	0.80000000	1.00000000	0.70000000	219.7	109.3	153.5	168.3	141.3	

#3
liczenie
obiektów (w)	udzia³ punktów	pole obrazu(mm²)	
   11	100.00	12288.0000
nr.	x(pix.):	y(pix.):	x(mm):	y(mm):	powierzchnia:(mm²)	d³ugoœæ:(mm)	szerokoœæ:(mm)	k¹t:(°)	obwód:(mm)	obwód C.:(mm)	œrednica Fereta H(mm)	œrednica Fereta V(mm)	œredn. Martina:(mm)	œredn. sitowa:(mm)	œrednia jaskrawoœæ	R	G	B	Y	
1	 529	 914	52.9000000	91.4000000	1.16000000	1.48660687	0.82462113	160.35	3.77316526	3.71625975	1.50000000	1.00000000	1.50000000	0.90000000	232.9	97.3	146.9	179.3	134.9	
2	1096	 910	109.600000	91.0000000	0.94000000	1.71172428	0.60000000	83.29	3.97321642	3.82926275	0.70000000	1.80000000	0.60000000	0.60000000	223.6	81.9	128.4	162.8	117.5	
3	1253	 851	125.300000	85.1000000	0.72000000	1.23693169	0.60827625	104.04	3.00352447	3.00352447	0.60000000	1.30000000	0.60000000	0.50000000	224.9	72.1	116.2	152.5	106.4	
4	1150	 811	115.000000	81.1000000	0.73000000	1.17046999	0.60827625	160.02	2.97839854	2.92695814	1.20000000	0.80000000	1.20000000	0.70000000	228.5	91.2	139.7	172.5	128.0	
5	1177	 781	117.700000	78.1000000	1.37000000	1.98494332	0.70710678	130.91	4.80563743	4.51843500	1.50000000	1.60000000	1.20000000	0.78102497	226.1	100.8	154.3	182.7	140.7	
6	 356	 771	35.6000000	77.1000000	1.47000000	1.70293864	1.06301458	49.76	4.38967294	4.32530673	1.40000000	1.60000000	1.20000000	1.00000000	233.6	91.4	143.2	174.0	130.4	
8	 641	 726	64.1000000	72.6000000	1.74000000	2.32594067	0.63245553	25.46	5.25439125	5.19536562	2.20000000	1.40000000	1.60000000	0.89442719	235.7	95.5	145.3	176.3	133.2	
11	 647	 571	64.7000000	57.1000000	1.32000000	1.82482876	0.70000000	 9.46	4.34248978	4.30537509	1.90000000	0.90000000	1.80000000	0.80622577	236.4	95.6	146.6	178.4	134.1	
12	 824	 542	82.4000000	54.2000000	0.96000000	1.33416641	0.80622577	102.99	3.43043710	3.39891769	0.80000000	1.40000000	0.80000000	0.70000000	229.0	86.0	135.2	165.6	123.1	
14	 975	 432	97.5000000	43.2000000	1.25000000	1.83847763	0.84852814	45.00	4.64785381	4.42405821	1.60000000	1.60000000	1.10000000	0.92195445	229.8	95.2	149.7	178.9	136.0	
15	 304	 334	30.4000000	33.4000000	2.31000000	2.13775583	1.31529464	10.78	5.79758252	5.39691706	2.20000000	1.40000000	2.10000000	1.30000000	235.4	109.4	157.6	178.5	144.8	
16	 189	 327	18.9000000	32.7000000	0.45000000	0.76157731	0.63245553	66.80	2.20459047	2.15710929	0.80000000	0.80000000	0.70000000	0.70710678	218.6	85.3	136.2	166.1	123.6	
17	 277	 325	27.7000000	32.5000000	0.99000000	1.43178211	0.76157731	24.78	3.43172360	3.39862364	1.40000000	0.90000000	1.40000000	0.80000000	233.5	99.0	155.1	181.4	140.4	
19	 641	 266	64.1000000	26.6000000	0.36000000	0.70710678	0.56568542	45.00	1.85039379	1.83257923	0.70000000	0.60000000	0.70000000	0.50000000	222.5	120.7	175.5	190.3	160.0	
20	 780	 123	78.0000000	12.3000000	1.06000000	1.25299641	0.89442719	118.61	3.49921017	3.43495639	1.20000000	1.20000000	1.20000000	1.07703296	222.2	106.5	159.4	180.4	145.2	

#4
liczenie
obiektów (w)	udzia³ punktów	pole obrazu(mm²)	
  233	100.00	12288.0000
nr.	x(pix.):	y(pix.):	x(mm):	y(mm):	powierzchnia:(mm²)	d³ugoœæ:(mm)	szerokoœæ:(mm)	k¹t:(°)	obwód:(mm)	obwód C.:(mm)	œrednica Fereta H(mm)	œrednica Fereta V(mm)	œredn. Martina:(mm)	œredn. sitowa:(mm)	œrednia jaskrawoœæ	R	G	B	Y	
1	  22	 953	2.20000000	95.3000000	1.23000000	1.31529464	1.10000000	 8.75	3.74424224	3.68446149	1.40000000	1.20000000	1.40000000	1.10000000	233.6	84.1	126.4	158.0	116.5	
2	 946	 953	94.6000000	95.3000000	0.21000000	0.53851648	0.30000000	68.20	1.23890504	1.23890504	0.50000000	0.50000000	0.50000000	0.40000000	203.0	59.3	90.5	114.8	83.2	
3	 827	 950	82.7000000	95.0000000	0.12000000	0.36055513	0.20000000	123.69	0.78863495	0.78863495	0.30000000	0.40000000	0.30000000	0.20000000	170.7	63.1	94.6	109.7	86.3	
5	 410	 942	41.0000000	94.2000000	0.31000000	0.67082039	0.31622777	153.43	1.77640920	1.75121560	0.70000000	0.60000000	0.60000000	0.53851648	213.8	68.4	104.2	128.9	95.6	
7	 638	 939	63.8000000	93.9000000	0.21000000	0.50000000	0.28284271	126.87	1.22109048	1.22109048	0.50000000	0.50000000	0.50000000	0.40000000	198.2	63.0	94.6	117.1	87.1	
9	1202	 933	120.200000	93.3000000	0.81000000	1.20830460	0.63245553	114.44	3.14175823	3.12442194	1.10000000	1.20000000	0.90000000	0.78102497	226.1	66.4	106.1	140.4	97.4	
11	 976	 914	97.6000000	91.4000000	2.00000000	2.02484567	1.04403065	69.78	5.38532880	5.18375267	1.50000000	2.00000000	1.30000000	1.30384048	233.1	80.3	123.5	153.3	113.2	
12	 269	 916	26.9000000	91.6000000	1.65000000	2.41867732	0.80622577	150.26	6.01138071	5.38883522	2.20000000	1.40000000	1.70000000	0.86023253	229.2	78.8	116.9	142.1	107.6	
13	 628	 915	62.8000000	91.5000000	0.19000000	0.56568542	0.28284271	135.00	1.38125592	1.35606233	0.50000000	0.50000000	0.40000000	0.36055513	199.4	66.6	96.7	110.6	88.6	
14	 909	 906	90.9000000	90.6000000	1.44000000	1.43178211	1.20830460	24.78	4.44913259	4.14249530	1.40000000	1.40000000	1.30000000	1.34164079	227.6	94.3	142.7	163.6	129.9	
15	 614	 905	61.4000000	90.5000000	1.35000000	1.62788206	1.31529464	79.38	4.66667957	4.32077486	1.50000000	1.70000000	1.40000000	1.14017543	224.0	68.8	101.8	113.4	92.6	
16	1063	 901	106.300000	90.1000000	1.43000000	1.86815417	0.92195445	105.52	4.88101564	4.58868758	1.30000000	1.90000000	1.00000000	0.86023253	224.2	70.2	111.4	141.7	101.8	
17	 437	 895	43.7000000	89.5000000	1.07000000	1.22065556	0.94339811	145.01	3.55560729	3.43713546	1.20000000	1.20000000	1.10000000	1.00000000	228.3	80.5	123.3	150.9	112.8	
19	1165	 894	116.500000	89.4000000	0.89000000	1.16619038	0.80622577	30.96	3.06173865	3.03654506	1.10000000	1.00000000	1.10000000	0.89442719	235.1	77.3	122.2	158.9	112.2	
21	 778	 886	77.8000000	88.6000000	0.31000000	0.70710678	0.40000000	171.87	1.89349767	1.80815841	0.80000000	0.60000000	0.80000000	0.50000000	191.1	64.3	96.3	109.3	87.6	
22	  25	 883	2.50000000	88.3000000	0.75000000	1.08166538	0.80622577	33.69	2.83480038	2.83151076	1.00000000	0.80000000	1.00000000	0.70000000	231.7	90.9	127.6	156.7	119.1	
23	 928	 880	92.8000000	88.0000000	0.15000000	0.42426407	0.28284271	45.00	0.89442719	0.89442719	0.40000000	0.40000000	0.40000000	0.30000000	191.1	61.3	93.4	111.5	85.1	
24	 874	 877	87.4000000	87.7000000	0.31000000	0.63245553	0.40000000	71.57	1.70393320	1.68611864	0.60000000	0.70000000	0.60000000	0.50000000	211.3	64.5	97.0	116.9	88.9	
25	 599	 874	59.9000000	87.4000000	0.20000000	0.53851648	0.31622777	158.20	1.29356648	1.29356648	0.60000000	0.40000000	0.60000000	0.40000000	196.3	66.2	98.2	110.1	89.4	
28	 519	 858	51.9000000	85.8000000	0.32000000	0.78102497	0.28284271	129.81	1.75803881	1.75412161	0.60000000	0.70000000	0.60000000	0.42426407	205.8	67.8	99.8	112.9	91.1	
31	 436	 836	43.6000000	83.6000000	0.84000000	1.08166538	0.86023253	146.31	3.03002401	2.96614481	1.10000000	1.00000000	1.00000000	0.84852814	227.0	88.3	131.5	153.5	120.3	
32	 598	 838	59.8000000	83.8000000	0.10000000	0.36055513	0.10000000	123.69	0.82426407	0.82426407	0.30000000	0.40000000	0.30000000	0.20000000	155.7	66.2	97.7	110.3	89.1	
34	 298	 830	29.8000000	83.0000000	0.63000000	1.00000000	0.80000000	 0.00	2.82579804	2.72792969	1.10000000	0.90000000	1.10000000	0.76157731	220.9	85.1	133.6	158.2	121.1	
35	 201	 831	20.1000000	83.1000000	0.25000000	0.58309519	0.31622777	149.04	1.55952416	1.54973652	0.60000000	0.50000000	0.60000000	0.40000000	215.4	71.5	105.2	127.6	97.0	
36	1090	 825	109.000000	82.5000000	0.90000000	1.25299641	0.80622577	61.39	3.24326215	3.19893591	0.90000000	1.20000000	0.90000000	0.80000000	230.7	79.1	125.2	159.1	114.5	
37	 582	 825	58.2000000	82.5000000	0.24000000	0.76157731	0.30000000	23.20	1.41717328	1.41270025	0.80000000	0.40000000	0.70000000	0.30000000	201.6	68.5	98.7	110.7	90.3	
38	 365	 823	36.5000000	82.3000000	0.15000000	0.42426407	0.28284271	45.00	0.98125592	0.98125592	0.40000000	0.40000000	0.40000000	0.30000000	197.9	67.1	99.1	117.7	91.0	
39	 955	 814	95.5000000	81.4000000	1.05000000	1.26491106	1.04403065	108.43	3.52335054	3.51558790	1.10000000	1.30000000	1.10000000	1.00000000	227.8	79.2	122.8	151.5	112.3	
40	 172	 813	17.2000000	81.3000000	1.34000000	1.87882942	0.76157731	154.80	4.70702817	4.50391835	1.80000000	1.30000000	1.30000000	0.86023253	227.9	75.8	119.1	146.2	108.4	
41	  92	 812	9.20000000	81.2000000	1.10000000	1.27279221	0.98994949	45.00	3.44918003	3.41995213	1.20000000	1.10000000	1.20000000	1.00000000	232.7	77.3	118.8	145.3	108.7	
42	 412	 802	41.2000000	80.2000000	1.74000000	2.15406592	1.17046999	158.20	5.45008710	5.18158732	2.10000000	1.40000000	1.70000000	1.20415946	227.8	82.2	124.4	144.6	113.4	
43	 587	 804	58.7000000	80.4000000	0.39000000	0.85440037	0.41231056	110.56	2.64361260	2.28861631	0.80000000	0.90000000	0.60000000	0.50000000	196.7	70.9	102.1	114.0	93.5	
44	1161	 801	116.100000	80.1000000	0.70000000	1.01980390	0.70000000	168.69	2.90254830	2.83243534	1.10000000	0.90000000	1.00000000	0.72111026	228.6	70.5	110.1	140.2	100.9	
45	 791	 802	79.1000000	80.2000000	0.18000000	0.44721360	0.31622777	116.57	1.26409863	1.24628407	0.50000000	0.50000000	0.50000000	0.36055513	189.4	64.3	98.5	117.4	89.8	
48	 880	 790	88.0000000	79.0000000	0.90000000	1.14017543	0.86023253	52.13	3.14221832	3.12199515	1.00000000	1.10000000	0.90000000	0.90000000	226.2	71.2	111.3	135.0	101.3	
49	 125	 784	12.5000000	78.4000000	1.24000000	1.36014705	1.01980390	107.10	3.74630007	3.71271625	1.30000000	1.40000000	1.10000000	1.14017543	227.1	79.0	126.6	154.6	114.8	
51	1137	 780	113.700000	78.0000000	1.32000000	1.45602198	0.92195445	105.95	3.90219785	3.85817850	1.10000000	1.50000000	1.10000000	1.00000000	228.7	86.2	134.3	161.0	122.2	
52	 609	 784	60.9000000	78.4000000	0.22000000	0.50000000	0.28284271	126.87	1.23890504	1.23890504	0.50000000	0.50000000	0.50000000	0.40000000	210.3	67.1	101.4	116.5	92.2	
53	1078	 781	107.800000	78.1000000	0.30000000	0.63245553	0.50990195	18.43	1.64628407	1.63890504	0.70000000	0.60000000	0.70000000	0.56568542	211.6	67.0	106.5	131.8	97.0	
54	 327	 774	32.7000000	77.4000000	0.39000000	0.72801099	0.50000000	15.95	1.96270435	1.94248118	0.80000000	0.60000000	0.80000000	0.50000000	217.6	70.4	106.4	134.4	98.1	
55	 597	 770	59.7000000	77.0000000	0.47000000	1.14017543	0.42426407	142.13	2.73165909	2.64375537	1.00000000	0.90000000	0.70000000	0.50000000	206.0	68.5	100.9	111.9	91.8	
56	1064	 768	106.400000	76.8000000	0.30000000	0.60827625	0.40000000	99.46	1.62448350	1.62448350	0.60000000	0.70000000	0.60000000	0.56568542	218.6	62.5	97.8	124.5	89.6	
57	1144	 764	114.400000	76.4000000	1.59000000	1.67630546	1.01980390	107.35	4.57691819	4.38281815	1.20000000	1.70000000	1.00000000	1.11803399	231.7	85.0	136.3	165.0	123.4	
58	 926	 766	92.6000000	76.6000000	0.25000000	0.63245553	0.30000000	71.57	1.55909203	1.55909203	0.50000000	0.70000000	0.50000000	0.40000000	198.5	65.2	98.6	118.2	90.2	
59	  61	 764	6.10000000	76.4000000	0.15000000	0.42426407	0.28284271	45.00	0.98125592	0.98125592	0.40000000	0.40000000	0.40000000	0.30000000	188.0	62.9	95.9	112.8	87.3	
61	1117	 756	111.700000	75.6000000	0.13000000	0.36055513	0.14142136	146.31	0.99907048	0.99907048	0.40000000	0.40000000	0.40000000	0.28284271	195.9	61.5	95.7	120.8	87.7	
62	1244	 735	124.400000	73.5000000	2.98000000	5.87281874	0.56568542	42.93	12.4667147	11.9056132	4.50000000	4.10000000	1.20000000	0.64031242	223.4	62.9	98.7	122.1	90.0	
63	 943	 752	94.3000000	75.2000000	0.52000000	0.92195445	0.60000000	102.53	2.39785672	2.38004216	0.70000000	1.00000000	0.70000000	0.60000000	213.5	67.3	105.1	125.3	95.4	
64	 422	 744	42.2000000	74.4000000	2.44000000	2.24722051	1.26491106	69.15	5.63409301	5.55747966	1.60000000	2.20000000	1.50000000	1.47648231	233.2	83.5	130.0	157.5	118.4	
66	1084	 742	108.400000	74.2000000	2.04000000	2.34307490	1.14017543	129.81	5.92049970	5.67399075	1.80000000	2.10000000	1.40000000	1.25299641	228.7	89.0	137.0	159.1	124.4	
67	 804	 748	80.4000000	74.8000000	0.45000000	0.76157731	0.63245553	156.80	2.03405832	2.03405832	0.80000000	0.70000000	0.80000000	0.60000000	218.9	70.3	103.0	119.4	94.4	
69	  54	 736	5.40000000	73.6000000	0.19000000	0.58309519	0.31622777	30.96	1.51355629	1.39508446	0.60000000	0.50000000	0.50000000	0.44721360	181.4	63.7	94.2	110.1	86.2	
70	 860	 734	86.0000000	73.4000000	0.38000000	0.67082039	0.44721360	26.57	1.86204708	1.85466805	0.70000000	0.60000000	0.70000000	0.60000000	220.2	75.9	117.8	145.8	107.8	
71	 357	 727	35.7000000	72.7000000	2.89000000	2.28473193	1.61554944	113.20	6.02013924	5.86774288	1.70000000	2.20000000	1.60000000	1.60000000	232.5	98.3	144.0	162.3	131.7	
72	1068	 735	106.800000	73.5000000	0.19000000	0.50000000	0.22360680	143.13	1.34049183	1.31876007	0.50000000	0.50000000	0.50000000	0.36055513	190.5	59.7	94.1	113.2	85.4	
73	1032	 716	103.200000	71.6000000	2.60000000	2.40416306	1.23693169	73.07	6.36048600	6.00089226	1.50000000	2.40000000	1.30000000	1.31529464	229.5	85.0	136.2	162.9	123.1	
74	 300	 720	30.0000000	72.0000000	0.38000000	0.70710678	0.40000000	171.87	1.98789794	1.95226882	0.80000000	0.60000000	0.80000000	0.50000000	218.1	67.7	105.8	131.1	96.6	
75	 574	 721	57.4000000	72.1000000	0.12000000	0.31622777	0.20000000	108.43	0.94787087	0.94787087	0.40000000	0.40000000	0.40000000	0.28284271	174.4	65.3	97.9	110.9	89.1	
76	 482	 711	48.2000000	71.1000000	1.91000000	2.01246118	1.07703296	153.43	5.69112219	5.06377050	2.00000000	1.40000000	1.90000000	1.17046999	230.5	93.2	144.5	168.1	131.1	
77	 646	 709	64.6000000	70.9000000	1.34000000	1.39283883	1.14017543	21.04	4.01269128	3.88443181	1.40000000	1.20000000	1.40000000	1.20000000	227.6	88.6	138.0	159.0	124.8	
78	 269	 711	26.9000000	71.1000000	0.49000000	0.82462113	0.70710678	14.04	2.20580823	2.18799367	0.90000000	0.80000000	0.80000000	0.64031242	221.1	76.1	115.8	138.6	105.9	
79	1181	 681	118.100000	68.1000000	3.82000000	6.51152824	1.06301458	42.51	14.2474498	13.1037991	4.90000000	4.40000000	1.50000000	1.13137085	221.3	70.1	108.6	131.3	99.0	
80	 194	 699	19.4000000	69.9000000	1.41000000	1.55241747	1.11803399	14.93	4.31726575	4.06174414	1.60000000	1.20000000	1.60000000	1.10000000	230.4	91.9	141.9	163.5	128.7	
81	 907	 703	90.7000000	70.3000000	0.11000000	0.36055513	0.10000000	33.69	0.73005631	0.73005631	0.40000000	0.30000000	0.40000000	0.20000000	178.5	65.5	97.6	112.9	89.2	
82	 580	 700	58.0000000	70.0000000	0.26000000	0.56568542	0.42426407	45.00	1.43152601	1.43152601	0.60000000	0.50000000	0.60000000	0.40000000	211.4	69.1	102.8	117.5	93.7	
83	1017	 696	101.700000	69.6000000	0.90000000	1.14017543	0.86023253	52.13	3.11948185	3.10969421	1.10000000	1.00000000	1.10000000	0.90000000	227.6	78.3	127.1	157.3	115.1	
84	1237	 695	123.700000	69.5000000	0.30000000	0.58309519	0.44721360	149.04	1.62109048	1.61717328	0.60000000	0.60000000	0.60000000	0.50000000	213.0	63.6	95.9	128.9	89.3	
85	 810	 681	81.0000000	68.1000000	2.10000000	1.99248588	1.33416641	107.53	5.43328701	5.19120484	1.30000000	2.00000000	1.20000000	1.30000000	232.1	90.5	140.6	165.0	127.6	
87	1208	 682	120.800000	68.2000000	0.60000000	0.86023253	0.58309519	144.46	2.61318726	2.55542105	0.90000000	0.90000000	0.90000000	0.85440037	222.8	76.7	122.4	153.8	111.5	
88	 617	 683	61.7000000	68.3000000	0.25000000	0.63245553	0.31622777	18.43	1.49010465	1.48618745	0.70000000	0.50000000	0.70000000	0.41231056	201.8	68.6	100.6	111.3	91.6	
89	 270	 677	27.0000000	67.7000000	0.25000000	0.72801099	0.30000000	164.05	1.83498784	1.75606233	0.80000000	0.40000000	0.80000000	0.30000000	180.6	62.1	95.4	109.6	86.4	
90	 304	 676	30.4000000	67.6000000	0.13000000	0.36055513	0.14142136	123.69	0.93005631	0.93005631	0.40000000	0.40000000	0.40000000	0.28284271	181.5	64.1	96.5	110.9	87.9	
91	 410	 675	41.0000000	67.5000000	0.18000000	0.44721360	0.31622777	153.43	1.09748369	1.09748369	0.50000000	0.40000000	0.50000000	0.30000000	204.3	67.2	101.0	119.8	92.4	
92	 446	 666	44.6000000	66.6000000	0.33000000	0.63245553	0.50990195	161.57	1.75121560	1.73340105	0.70000000	0.60000000	0.60000000	0.50000000	208.0	65.5	101.5	123.0	92.5	
94	1208	 661	120.800000	66.1000000	0.63000000	0.92195445	0.72111026	40.60	2.50945318	2.50704457	0.80000000	0.90000000	0.80000000	0.80622577	229.2	80.5	125.0	159.5	114.8	
95	 950	 649	95.0000000	64.9000000	2.15000000	1.99248588	1.36014705	107.53	5.50122117	5.28945704	1.40000000	2.00000000	1.30000000	1.30000000	228.6	80.5	124.3	144.7	112.8	
98	 328	 651	32.8000000	65.1000000	0.47000000	0.82462113	0.60000000	14.04	2.34500063	2.26619881	0.90000000	0.80000000	0.80000000	0.70710678	215.3	81.2	122.5	143.4	111.9	
99	1109	 646	110.900000	64.6000000	1.09000000	1.34536240	0.98994949	131.99	3.58817348	3.52567764	1.10000000	1.20000000	1.00000000	1.00498756	234.2	85.2	134.7	163.7	122.4	
100	1017	 649	101.700000	64.9000000	0.18000000	0.50000000	0.28284271	36.87	1.17733872	1.15952416	0.50000000	0.40000000	0.50000000	0.30000000	204.0	63.1	98.1	118.4	89.3	
101	 397	 647	39.7000000	64.7000000	0.14000000	0.36055513	0.22360680	123.69	0.91224175	0.91224175	0.40000000	0.40000000	0.40000000	0.30000000	193.3	66.0	99.6	114.1	90.6	
103	 104	 634	10.4000000	63.4000000	3.27000000	2.55538647	1.70000000	30.58	6.66854378	6.58350499	2.30000000	2.20000000	1.90000000	1.69705627	236.6	87.1	132.4	155.8	120.8	
104	  59	 622	5.90000000	62.2000000	2.93000000	2.50000000	1.43178211	163.74	7.11780916	6.50458648	2.50000000	1.70000000	2.40000000	1.45602198	237.1	88.9	132.6	157.2	121.6	
105	 527	 622	52.7000000	62.2000000	1.42000000	1.52643375	1.08166538	121.61	4.10107426	4.08120922	1.20000000	1.40000000	1.10000000	1.10453610	235.1	89.6	138.0	161.9	125.5	
106	 631	 622	63.1000000	62.2000000	0.51000000	1.00000000	0.72111026	36.87	2.74667377	2.66197826	0.90000000	0.90000000	0.80000000	0.72111026	202.4	67.8	99.3	109.6	90.4	
108	 980	 610	98.0000000	61.0000000	6.50000000	3.14006369	2.91547595	80.84	10.6203804	9.30255790	3.10000000	3.20000000	3.00000000	2.66270539	237.7	97.6	145.7	162.0	132.5	
109	 512	 622	51.2000000	62.2000000	0.30000000	0.58309519	0.44721360	120.96	1.63152601	1.61371145	0.60000000	0.60000000	0.60000000	0.50000000	214.0	70.0	104.1	120.7	95.1	
110	1067	 618	106.700000	61.8000000	0.71000000	0.98488578	0.63245553	66.04	2.69461344	2.65898433	1.00000000	1.00000000	0.90000000	0.84852814	222.2	88.7	139.4	165.2	126.3	
112	 940	 613	94.0000000	61.3000000	1.62000000	1.61554944	1.36014705	68.20	4.93505871	4.52611266	1.60000000	1.60000000	1.30000000	1.36014705	228.0	83.5	126.3	147.0	115.1	
114	 590	 613	59.0000000	61.3000000	0.84000000	1.20830460	0.76157731	65.56	3.06232387	3.02669475	0.90000000	1.20000000	0.90000000	0.90000000	222.7	71.0	106.3	121.8	96.9	
115	1014	 606	101.400000	60.6000000	1.25000000	1.48660687	1.01980390	70.35	4.03659721	3.91365236	1.10000000	1.50000000	1.00000000	1.00000000	225.6	82.0	127.5	151.0	115.8	
117	1207	 607	120.700000	60.7000000	0.35000000	0.64031242	0.50000000	128.66	1.74078008	1.74078008	0.60000000	0.70000000	0.60000000	0.50000000	215.9	66.7	106.5	138.1	97.4	
118	 133	 598	13.3000000	59.8000000	3.31000000	2.84604989	1.77200451	71.57	8.56783198	7.26174893	2.10000000	2.80000000	2.00000000	1.70000000	232.5	92.3	138.9	156.9	126.3	
119	 347	 603	34.7000000	60.3000000	0.62000000	0.98488578	0.72801099	156.04	2.69667786	2.48624233	1.00000000	0.80000000	1.00000000	0.70000000	222.6	92.2	132.2	142.0	120.7	
120	 830	 599	83.0000000	59.9000000	0.20000000	0.50000000	0.28284271	143.13	1.15214513	1.15214513	0.50000000	0.40000000	0.50000000	0.30000000	211.6	70.3	104.9	123.8	96.2	
122	1201	 589	120.100000	58.9000000	1.30000000	1.65529454	0.85440037	25.02	4.10011678	3.99014761	1.60000000	1.20000000	1.50000000	1.07703296	233.3	76.3	120.2	152.0	109.9	
123	 966	 590	96.6000000	59.0000000	0.26000000	0.56568542	0.42426407	135.00	1.56755107	1.54973652	0.60000000	0.50000000	0.60000000	0.40000000	213.2	72.0	104.6	114.5	95.3	
126	 719	 574	71.9000000	57.4000000	0.18000000	0.44721360	0.31622777	153.43	1.09748369	1.09748369	0.50000000	0.40000000	0.50000000	0.30000000	202.6	67.7	100.2	114.9	91.7	
128	 695	 566	69.5000000	56.6000000	0.98000000	1.14017543	0.92195445	142.13	3.33148829	3.27066558	1.20000000	1.00000000	1.10000000	0.90000000	228.9	91.4	141.6	160.6	128.0	
129	1271	 559	127.100000	55.9000000	0.95000000	1.30000000	0.72801099	67.38	3.50945318	3.37015934	1.10000000	1.30000000	1.00000000	0.89442719	227.7	76.3	121.8	156.5	111.4	
130	 655	 560	65.5000000	56.0000000	0.51000000	0.80622577	0.63245553	150.26	2.24442503	2.24279933	0.80000000	0.70000000	0.80000000	0.60000000	220.7	73.3	110.2	125.6	100.2	
131	1037	 550	103.700000	55.0000000	2.26000000	2.15406592	1.26491106	158.20	5.77276005	5.61525623	2.10000000	1.80000000	1.90000000	1.43178211	231.9	86.4	134.0	156.0	121.5	
132	 653	 552	65.3000000	55.2000000	0.15000000	0.44721360	0.22360680	26.57	1.11224175	1.10486272	0.50000000	0.40000000	0.50000000	0.31622777	176.4	66.4	97.7	108.9	89.0	
134	 109	 545	10.9000000	54.5000000	0.16000000	0.53851648	0.20000000	21.80	1.11138104	1.11138104	0.60000000	0.30000000	0.60000000	0.20000000	188.8	63.3	95.1	109.8	86.6	
135	 393	 544	39.3000000	54.4000000	0.22000000	0.53851648	0.31622777	21.80	1.30486272	1.30486272	0.60000000	0.50000000	0.60000000	0.40000000	207.7	69.4	100.0	122.9	92.8	
136	1057	 538	105.700000	53.8000000	0.80000000	1.36014705	0.82462113	17.10	3.44124517	3.29377338	1.40000000	1.00000000	1.00000000	0.76157731	223.3	68.2	105.1	124.5	95.7	
137	  61	 528	6.10000000	52.8000000	2.98000000	2.59422435	1.30000000	62.45	6.68873409	6.48510667	2.00000000	2.40000000	1.50000000	1.43178211	237.3	91.3	137.1	161.1	125.4	
138	 741	 536	74.1000000	53.6000000	0.16000000	0.41231056	0.20000000	165.96	1.12267728	1.12267728	0.50000000	0.40000000	0.50000000	0.30000000	182.0	66.2	101.7	115.5	92.1	
140	 701	 530	70.1000000	53.0000000	0.10000000	0.36055513	******	146.31	0.83983456	0.83983456	0.40000000	0.30000000	0.40000000	0.20000000	172.5	69.1	99.7	110.4	91.1	
141	1020	 526	102.000000	52.6000000	0.30000000	0.58309519	0.44721360	149.04	1.54469728	1.54469728	0.60000000	0.60000000	0.60000000	0.50000000	213.5	67.7	102.0	122.4	93.4	
142	1028	 526	102.800000	52.6000000	0.23000000	0.56568542	0.42426407	45.00	1.40551999	1.38770543	0.60000000	0.50000000	0.60000000	0.40000000	198.2	66.5	100.2	112.8	91.0	
143	 716	 526	71.6000000	52.6000000	0.10000000	0.36055513	******	146.31	0.83983456	0.83983456	0.40000000	0.30000000	0.40000000	0.20000000	177.3	68.2	101.3	111.6	92.0	
145	1098	 520	109.800000	52.0000000	1.08000000	1.33416641	0.80622577	102.99	3.47922036	3.45748860	1.00000000	1.40000000	1.00000000	0.90000000	224.4	82.9	130.7	157.8	118.7	
146	 295	 518	29.5000000	51.8000000	1.84000000	1.65529454	1.30000000	154.98	4.78378066	4.65983739	1.60000000	1.40000000	1.50000000	1.40000000	236.6	92.5	138.9	160.9	126.7	
147	 997	 520	99.7000000	52.0000000	0.14000000	0.36055513	0.22360680	146.31	0.99907048	0.99907048	0.40000000	0.40000000	0.40000000	0.30000000	188.9	61.4	96.1	111.0	86.9	
149	 685	 512	68.5000000	51.2000000	0.34000000	1.02956301	0.31622777	150.95	2.64361260	2.32726274	1.00000000	0.70000000	0.80000000	0.44721360	178.5	68.7	100.1	108.2	90.9	
151	1029	 510	102.900000	51.0000000	0.45000000	1.11803399	0.50000000	10.30	3.07699765	2.72549467	1.20000000	0.60000000	1.20000000	0.50000000	199.8	67.1	100.1	112.0	91.0	
152	 402	 504	40.2000000	50.4000000	0.54000000	0.86023253	0.64031242	35.54	2.39272175	2.35261961	0.90000000	0.80000000	0.80000000	0.78102497	221.4	90.1	134.8	157.0	123.2	
153	 609	 502	60.9000000	50.2000000	0.37000000	0.72801099	0.40000000	15.95	1.91783055	1.88220143	0.80000000	0.60000000	0.80000000	0.50000000	217.2	77.5	112.8	126.0	103.1	
154	 834	 497	83.4000000	49.7000000	0.60000000	0.92195445	0.72111026	130.60	2.48227684	2.43535148	0.90000000	0.80000000	0.80000000	0.70000000	220.2	85.1	133.6	157.1	121.0	
156	 711	 489	71.1000000	48.9000000	0.26000000	0.53851648	0.40000000	111.80	1.47229010	1.47229010	0.50000000	0.60000000	0.50000000	0.40000000	203.2	65.9	99.7	113.3	90.6	
157	1070	 489	107.000000	48.9000000	0.21000000	0.53851648	0.31622777	21.80	1.31876007	1.31428705	0.60000000	0.50000000	0.50000000	0.36055513	190.4	63.4	96.8	112.9	88.0	
159	 641	 478	64.1000000	47.8000000	0.21000000	0.50000000	0.28284271	53.13	1.29748369	1.27966913	0.50000000	0.50000000	0.50000000	0.40000000	203.8	67.4	102.2	113.5	92.4	
162	 761	 465	76.1000000	46.5000000	1.15000000	1.82482876	0.80622577	 9.46	4.14717948	4.02845393	1.90000000	0.80000000	1.80000000	0.80000000	227.2	71.4	108.1	119.5	97.8	
163	 958	 460	95.8000000	46.0000000	1.21000000	1.40356688	0.90000000	175.91	3.87736130	3.77732241	1.50000000	1.10000000	1.50000000	1.00000000	227.1	90.1	140.6	165.0	127.5	
164	 369	 459	36.9000000	45.9000000	0.87000000	1.23693169	0.70710678	165.96	3.16144337	3.12464478	1.30000000	0.80000000	1.30000000	0.70000000	231.9	88.8	139.4	162.4	126.1	
165	 583	 457	58.3000000	45.7000000	0.51000000	0.85440037	0.53851648	20.56	2.39023774	2.30001599	0.90000000	0.70000000	0.90000000	0.60000000	216.8	73.0	106.3	115.0	96.7	
166	 699	 456	69.9000000	45.6000000	0.16000000	0.41231056	0.20000000	165.96	1.12267728	1.12267728	0.50000000	0.40000000	0.50000000	0.30000000	186.0	65.4	100.4	111.8	90.6	
167	1232	 451	123.200000	45.1000000	1.12000000	1.42126704	0.86023253	140.71	3.81636745	3.71196412	1.40000000	1.10000000	1.30000000	0.85440037	225.7	77.6	120.4	149.8	110.2	
169	1053	 441	105.300000	44.1000000	1.70000000	1.77200451	1.21655251	106.39	4.83745794	4.66535119	1.30000000	1.80000000	1.10000000	1.20000000	228.2	84.8	133.9	154.4	120.8	
171	 772	 441	77.2000000	44.1000000	0.53000000	0.82462113	0.70710678	14.04	2.23100182	2.21318726	0.90000000	0.80000000	0.80000000	0.70000000	221.4	80.2	119.7	141.6	109.6	
172	 139	 414	13.9000000	41.4000000	2.10000000	3.11448230	0.70710678	42.40	6.89825818	6.79304599	2.40000000	2.40000000	1.10000000	0.70710678	226.6	82.9	118.5	129.5	108.5	
173	1270	 419	127.000000	41.9000000	1.48000000	1.61554944	1.07703296	68.20	4.35511734	4.20261940	1.20000000	1.60000000	1.00000000	1.11803399	228.1	82.5	128.0	157.5	117.0	
174	 334	 418	33.4000000	41.8000000	1.20000000	1.36014705	1.00000000	36.03	3.79084241	3.69663465	1.30000000	1.20000000	1.30000000	1.10000000	232.2	85.5	133.0	155.0	120.5	
175	1243	 411	124.300000	41.1000000	2.36000000	2.56320112	1.04403065	110.56	6.47268680	5.97256115	1.50000000	2.50000000	1.00000000	1.11803399	232.9	81.9	125.7	150.9	114.8	
176	 594	 417	59.4000000	41.7000000	0.20000000	0.50990195	0.20000000	101.31	1.15606233	1.15606233	0.40000000	0.50000000	0.40000000	0.30000000	196.8	67.0	101.1	112.7	91.6	
177	 518	 413	51.8000000	41.3000000	1.94000000	1.92353841	1.20415946	 8.97	4.94314601	4.87053857	2.00000000	1.20000000	2.00000000	1.10000000	228.4	99.2	147.7	165.4	134.5	
178	 714	 415	71.4000000	41.5000000	0.53000000	0.84852814	0.70710678	45.00	2.27241379	2.26687089	0.80000000	0.80000000	0.80000000	0.70000000	217.5	75.7	118.3	140.2	107.4	
179	 733	 409	73.3000000	40.9000000	0.35000000	0.67082039	0.53851648	26.57	1.91869126	1.86830408	0.70000000	0.70000000	0.70000000	0.58309519	212.2	77.5	116.2	133.5	105.9	
180	 483	 408	48.3000000	40.8000000	0.50000000	0.94339811	0.44721360	32.01	2.29128157	2.26608798	0.90000000	0.70000000	0.80000000	0.60000000	217.4	65.4	100.4	113.7	90.9	
181	 118	 395	11.8000000	39.5000000	2.34000000	1.93132079	1.48660687	21.25	5.95019482	5.30738096	1.90000000	1.70000000	1.80000000	1.56204994	235.7	107.8	154.1	168.3	141.1	
182	1224	 395	122.400000	39.5000000	2.01000000	2.08806130	1.14017543	16.70	5.17396491	5.06137324	2.10000000	1.30000000	1.90000000	1.20000000	238.3	91.0	141.6	169.5	128.8	
183	 928	 367	92.8000000	36.7000000	15.6100000	14.7078210	1.26491106	22.38	33.4507384	30.2147499	13.7000000	6.10000000	3.10000000	1.30000000	239.7	87.6	133.3	157.8	121.7	
184	 735	 389	73.5000000	38.9000000	0.92000000	1.60312195	0.70000000	86.42	3.94847532	3.74565564	0.90000000	1.70000000	0.90000000	0.80000000	208.9	65.9	99.2	110.9	89.9	
186	 439	 387	43.9000000	38.7000000	0.36000000	0.67082039	0.53851648	63.43	1.86011262	1.82448350	0.70000000	0.70000000	0.70000000	0.58309519	211.0	75.8	115.9	133.1	105.1	
187	 670	 383	67.0000000	38.3000000	0.97000000	1.20830460	0.85440037	114.44	3.48380422	3.36085936	1.10000000	1.20000000	1.00000000	0.98488578	222.8	81.6	125.4	144.8	113.8	
188	 217	 384	21.7000000	38.4000000	0.30000000	0.64031242	0.36055513	51.34	1.67054814	1.66607512	0.70000000	0.60000000	0.70000000	0.56568542	214.4	71.0	109.4	127.4	99.3	
189	 382	 383	38.2000000	38.3000000	0.58000000	0.86023253	0.72111026	54.46	2.45292609	2.39210339	0.90000000	0.80000000	0.90000000	0.70000000	225.1	86.8	129.9	150.2	118.6	
190	 503	 380	50.3000000	38.0000000	1.27000000	1.61245155	0.98488578	29.74	4.07793378	4.03844820	1.50000000	1.30000000	1.20000000	1.00000000	230.1	76.0	110.4	121.2	100.7	
191	 602	 379	60.2000000	37.9000000	0.10000000	0.36055513	******	146.31	0.83983456	0.83983456	0.40000000	0.30000000	0.40000000	0.20000000	172.3	69.5	102.8	111.9	93.2	
193	 577	 371	57.7000000	37.1000000	0.62000000	0.94339811	0.76157731	147.99	2.63623357	2.58584639	1.00000000	0.80000000	0.90000000	0.70000000	213.7	84.4	128.5	147.8	116.8	
194	 599	 367	59.9000000	36.7000000	0.12000000	0.41231056	0.20000000	104.04	0.86502815	0.74142136	0.40000000	0.40000000	0.30000000	0.28284271	166.3	68.1	100.2	107.8	90.8	
195	 606	 362	60.6000000	36.2000000	0.55000000	1.06301458	0.42426407	131.19	2.60694336	2.57934116	0.90000000	1.00000000	0.70000000	0.58309519	211.1	71.5	102.6	113.6	93.9	
196	1265	 361	126.500000	36.1000000	1.26000000	1.43178211	0.85440037	24.78	3.92571358	3.79945125	1.40000000	1.20000000	1.40000000	1.11803399	231.3	79.7	126.5	156.4	115.2	
197	 433	 358	43.3000000	35.8000000	1.58000000	1.61245155	1.25299641	60.26	5.17471587	4.73405401	1.60000000	1.60000000	1.60000000	1.36014705	222.0	73.8	110.3	126.2	100.5	
199	 832	 355	83.2000000	35.5000000	0.65000000	0.89442719	0.76157731	116.57	2.61232656	2.56690980	0.90000000	0.90000000	0.90000000	0.80000000	226.9	85.4	133.4	156.1	120.9	
200	1103	 345	110.300000	34.5000000	0.91000000	1.30384048	0.58309519	122.47	3.20196643	3.16633731	1.00000000	1.20000000	1.00000000	0.80622577	226.4	82.3	130.7	161.2	118.9	
201	1167	 337	116.700000	33.7000000	1.31000000	1.44222051	0.94339811	33.69	3.86606506	3.80423116	1.40000000	1.20000000	1.40000000	1.10000000	232.6	93.6	146.8	170.9	132.8	
203	 727	 337	72.7000000	33.7000000	0.25000000	0.58309519	0.31622777	30.96	1.38770543	1.38770543	0.60000000	0.50000000	0.60000000	0.40000000	206.1	69.3	102.6	114.1	93.3	
204	 834	 334	83.4000000	33.4000000	0.27000000	0.58309519	0.44721360	59.04	1.58032640	1.56251184	0.60000000	0.60000000	0.60000000	0.36055513	200.0	68.0	99.6	112.0	90.9	
205	  69	 326	6.90000000	32.6000000	0.47000000	0.98488578	0.53851648	23.96	2.22462771	2.19780843	1.00000000	0.60000000	0.90000000	0.50000000	223.5	88.2	130.5	154.9	119.9	
206	 120	 309	12.0000000	30.9000000	1.42000000	1.56524758	1.11803399	63.43	4.03494101	4.01067695	1.20000000	1.50000000	1.20000000	1.10000000	230.2	80.6	127.7	152.5	115.7	
207	1104	 311	110.400000	31.1000000	0.59000000	0.92195445	0.64031242	49.40	2.42035347	2.40253891	0.90000000	0.80000000	0.80000000	0.70000000	225.6	78.3	122.8	151.6	112.0	
209	 540	 301	54.0000000	30.1000000	0.52000000	0.85440037	0.63245553	20.56	2.31542194	2.29760738	0.90000000	0.80000000	0.90000000	0.56568542	218.1	82.0	128.1	147.4	115.9	
210	 763	 289	76.3000000	28.9000000	1.35000000	1.41421356	1.10000000	171.87	4.23652181	4.01491059	1.50000000	1.30000000	1.40000000	1.21655251	223.7	89.2	138.5	158.4	125.2	
212	 634	 287	63.4000000	28.7000000	0.11000000	0.36055513	0.10000000	146.31	0.83983456	0.83983456	0.40000000	0.30000000	0.40000000	0.20000000	185.2	66.6	100.5	112.5	91.2	
214	 919	 274	91.9000000	27.4000000	1.53000000	1.72626765	1.00000000	169.99	4.45570694	4.33833059	1.80000000	1.10000000	1.70000000	1.00000000	234.3	97.3	150.6	175.1	136.7	
215	 516	 269	51.6000000	26.9000000	1.49000000	1.52970585	1.20415946	78.69	4.36544981	4.23431351	1.40000000	1.60000000	1.30000000	1.31529464	227.9	88.3	136.8	157.5	123.9	
216	 903	 266	90.3000000	26.6000000	0.20000000	0.44721360	0.44721360	116.57	1.30486272	1.28704816	0.50000000	0.50000000	0.50000000	0.40000000	196.3	67.9	105.2	122.9	95.5	
217	1016	 261	101.600000	26.1000000	0.37000000	0.67082039	0.53851648	116.57	1.90739502	1.87176591	0.70000000	0.70000000	0.70000000	0.56568542	211.2	66.5	104.2	130.3	95.2	
219	 804	 252	80.4000000	25.2000000	0.94000000	1.17046999	0.94868330	160.02	3.48189300	3.31080503	1.20000000	1.10000000	1.20000000	0.90553851	225.8	80.0	124.9	147.0	113.3	
220	 967	 247	96.7000000	24.7000000	1.42000000	1.56524758	1.11803399	116.57	4.38128789	4.16693204	1.40000000	1.50000000	1.30000000	1.11803399	228.6	94.0	146.6	169.9	132.8	
223	 256	 238	25.6000000	23.8000000	1.06000000	1.40356688	0.90000000	 4.09	4.01443299	3.66944949	1.50000000	1.10000000	1.40000000	1.00000000	227.7	88.1	136.6	159.3	123.9	
224	 401	 232	40.1000000	23.2000000	0.56000000	0.94868330	0.60827625	18.43	2.40656695	2.39873254	1.00000000	0.70000000	1.00000000	0.60000000	221.9	73.0	108.4	128.1	99.4	
225	1254	 228	125.400000	22.8000000	1.28000000	1.58113883	0.94339811	55.30	3.98327064	3.91827123	1.40000000	1.40000000	1.20000000	1.13137085	229.5	82.9	132.2	162.6	120.1	
226	 323	 229	32.3000000	22.9000000	0.40000000	0.72111026	0.58309519	56.31	1.88611864	1.88611864	0.70000000	0.70000000	0.70000000	0.60000000	219.6	83.0	126.3	145.8	114.9	
227	 950	 229	95.0000000	22.9000000	0.66000000	0.92195445	0.78102497	130.60	2.68965587	2.63764299	0.90000000	0.90000000	0.90000000	0.80000000	223.9	88.0	138.8	166.4	125.9	
229	 855	 222	85.5000000	22.2000000	0.19000000	0.50000000	0.28284271	143.13	1.15214513	1.15214513	0.50000000	0.40000000	0.50000000	0.30000000	207.1	65.6	102.6	120.1	92.9	
230	  99	 213	9.90000000	21.3000000	0.68000000	0.98488578	0.72801099	23.96	2.63776010	2.63535148	1.00000000	0.80000000	1.00000000	0.70000000	228.8	75.8	117.6	144.5	107.4	
232	 247	 206	24.7000000	20.6000000	0.11000000	0.36055513	0.10000000	146.31	0.83983456	0.83983456	0.40000000	0.30000000	0.40000000	0.20000000	193.2	65.2	99.5	114.7	90.4	
233	 983	 203	98.3000000	20.3000000	0.71000000	0.98488578	0.72801099	156.04	2.69443380	2.66924021	1.00000000	0.90000000	1.00000000	0.80000000	224.7	78.5	125.2	155.4	113.9	
234	 147	 197	14.7000000	19.7000000	2.19000000	2.02484567	1.30384048	122.91	5.35532307	5.25301288	1.50000000	2.00000000	1.30000000	1.36014705	233.5	88.2	138.1	163.8	125.2	
235	 471	 196	47.1000000	19.6000000	1.79000000	1.64012195	1.22065556	37.57	4.74489752	4.64373346	1.50000000	1.70000000	1.50000000	1.41421356	232.2	91.8	140.6	162.2	127.7	
236	 853	 196	85.3000000	19.6000000	1.92000000	2.06155281	1.06301458	140.91	5.25209843	5.00849562	1.90000000	1.40000000	1.70000000	1.16619038	236.2	88.1	138.8	165.5	125.8	
238	1126	 199	112.600000	19.9000000	0.11000000	0.31622777	0.20000000	161.57	0.85764912	0.85764912	0.40000000	0.40000000	0.40000000	0.28284271	183.5	63.5	96.7	115.7	88.3	
239	 251	 189	25.1000000	18.9000000	2.49000000	2.23606798	1.61245155	10.30	7.02344194	6.00212347	2.30000000	1.80000000	2.30000000	1.61245155	233.8	90.8	137.8	161.2	125.6	
240	  13	 189	1.30000000	18.9000000	1.09000000	1.89736660	0.70710678	71.57	4.47884039	4.35126919	1.10000000	1.90000000	0.70000000	0.63245553	223.5	75.6	111.0	128.0	101.6	
241	 353	 189	35.3000000	18.9000000	0.55000000	0.85440037	0.63245553	20.56	2.34275656	2.31756297	0.90000000	0.80000000	0.90000000	0.70000000	220.4	84.7	129.0	151.7	117.6	
243	 733	 171	73.3000000	17.1000000	0.20000000	0.56568542	0.42426407	45.00	1.22109048	1.21661746	0.50000000	0.50000000	0.40000000	0.50000000	206.8	64.1	98.5	110.7	89.0	
244	 112	 165	11.2000000	16.5000000	1.04000000	1.36014705	0.82462113	17.10	3.52424169	3.49954549	1.40000000	0.90000000	1.30000000	0.80000000	233.0	90.9	141.6	164.5	128.2	
245	 492	 166	49.2000000	16.6000000	0.20000000	0.58309519	0.28284271	59.04	1.25671960	1.25671960	0.40000000	0.60000000	0.40000000	0.30000000	198.2	67.0	98.8	112.3	90.2	
247	 259	 154	25.9000000	15.4000000	2.11000000	2.28473193	1.07703296	23.20	5.61335688	5.48240949	2.20000000	1.50000000	2.10000000	1.20830460	234.7	85.1	127.6	145.3	116.2	
248	1092	 155	109.200000	15.5000000	0.90000000	1.30000000	0.76157731	67.38	3.33728520	3.26737569	1.10000000	1.30000000	0.90000000	0.89442719	222.0	82.6	128.4	155.0	117.0	
249	 513	 151	51.3000000	15.1000000	1.68000000	1.61554944	1.17046999	68.20	4.78217657	4.41720685	1.40000000	1.60000000	1.40000000	1.39283883	228.2	89.0	136.9	158.5	124.3	
251	1097	 128	109.700000	12.8000000	1.31000000	1.45602198	0.92195445	105.95	3.90325107	3.89038781	1.10000000	1.50000000	1.00000000	1.00000000	232.9	83.9	133.1	160.1	120.7	
252	1113	 129	111.300000	12.9000000	0.18000000	0.50000000	0.28284271	143.13	1.30094551	1.28313096	0.50000000	0.50000000	0.50000000	0.31622777	184.4	60.9	95.7	112.7	86.6	
253	 729	 123	72.9000000	12.3000000	0.19000000	0.53851648	0.30000000	158.20	1.16995968	1.16995968	0.60000000	0.40000000	0.60000000	0.30000000	197.7	66.6	97.9	110.4	89.3	
254	1120	 117	112.000000	11.7000000	0.98000000	1.34164079	0.89442719	116.57	3.58465554	3.46008772	1.00000000	1.30000000	0.90000000	0.92195445	222.4	82.3	131.0	158.0	118.7	
255	 723	 113	72.3000000	11.3000000	0.70000000	1.00000000	0.80622577	126.87	2.92614571	2.88857272	1.00000000	1.00000000	0.80000000	0.92195445	212.6	68.0	101.6	113.9	92.3	
257	 682	 105	68.2000000	10.5000000	0.19000000	0.44721360	0.31622777	116.57	1.24628407	1.24628407	0.50000000	0.50000000	0.50000000	0.36055513	195.8	66.4	99.7	114.1	90.8	
258	1113	 104	111.300000	10.4000000	0.33000000	0.64031242	0.50000000	128.66	1.66053849	1.65315945	0.60000000	0.60000000	0.60000000	0.50000000	213.2	71.0	109.8	134.6	100.3	
259	 732	  89	73.2000000	8.90000000	0.25000000	0.63245553	0.40000000	71.57	1.42846952	1.42846952	0.50000000	0.60000000	0.40000000	0.50000000	195.8	65.4	100.2	110.7	90.3	
260	 743	  89	74.3000000	8.90000000	0.24000000	0.63245553	0.30000000	18.43	1.50505523	1.48724067	0.70000000	0.40000000	0.70000000	0.30000000	203.7	64.0	96.6	109.9	87.7	
261	 283	  81	28.3000000	8.10000000	2.01000000	1.70000000	1.47648231	61.93	5.08247335	4.83038194	1.50000000	1.70000000	1.50000000	1.40000000	232.2	91.2	144.0	165.0	129.8	
263	1055	  82	105.500000	8.20000000	1.10000000	1.43178211	0.85440037	114.78	3.73066076	3.68708013	1.10000000	1.40000000	1.00000000	1.04403065	228.3	80.0	128.1	152.0	115.7	
265	 694	  77	69.4000000	7.70000000	0.26000000	0.56568542	0.42426407	135.00	1.48964928	1.47183472	0.60000000	0.50000000	0.60000000	0.40000000	209.3	64.5	99.0	120.4	90.5	
266	 522	  77	52.2000000	7.70000000	0.11000000	0.36055513	0.14142136	146.31	0.99907048	0.96344136	0.40000000	0.40000000	0.40000000	0.31622777	173.1	70.2	102.2	111.2	93.0	
267	 212	  73	21.2000000	7.30000000	1.05000000	1.20830460	0.94868330	155.56	3.42522558	3.40521193	1.20000000	1.10000000	1.20000000	1.00000000	226.0	83.6	132.5	154.4	119.6	
268	 710	  60	71.0000000	6.00000000	0.33000000	0.72111026	0.50000000	146.31	1.93650582	1.90393320	0.70000000	0.70000000	0.60000000	0.50000000	200.3	65.5	99.0	110.8	89.7	
269	  63	  42	6.30000000	4.20000000	3.06000000	2.34093998	1.89736660	70.02	7.13788717	6.56454412	2.00000000	2.30000000	1.90000000	1.89736660	235.2	88.1	132.5	155.7	121.1	
270	1110	  41	111.000000	4.10000000	0.20000000	0.50000000	0.28284271	53.13	1.23890504	1.22109048	0.50000000	0.50000000	0.40000000	0.31622777	209.5	67.8	102.8	123.8	94.0	
271	 301	  36	30.1000000	3.60000000	0.18000000	0.50000000	0.28284271	53.13	1.09748369	1.09748369	0.40000000	0.50000000	0.40000000	0.30000000	193.8	67.2	99.8	111.8	90.8	
274	 370	  33	37.0000000	3.30000000	0.16000000	0.44721360	0.31622777	26.57	1.12267728	1.10486272	0.50000000	0.40000000	0.50000000	0.30000000	188.4	61.8	95.9	111.9	86.9	
275	 307	  26	30.7000000	2.60000000	1.02000000	1.62788206	0.78102497	137.49	3.82655476	3.78857528	1.30000000	1.30000000	1.30000000	0.85440037	224.3	73.6	108.0	125.0	99.0	
276	 722	  24	72.2000000	2.40000000	0.31000000	0.72801099	0.40000000	74.05	1.90087670	1.86698600	0.60000000	0.80000000	0.60000000	0.50990195	191.5	65.6	98.0	111.5	89.2	
277	1168	  23	116.800000	2.30000000	0.41000000	0.76157731	0.53851648	113.20	2.12912679	2.05991385	0.70000000	0.80000000	0.70000000	0.63245553	209.0	74.8	111.3	141.1	103.1	
278	 332	  18	33.2000000	1.80000000	0.17000000	0.44721360	0.31622777	26.57	1.10486272	1.10486272	0.50000000	0.40000000	0.50000000	0.30000000	193.3	65.8	99.4	115.6	90.6	
279	1255	  10	125.500000	1.00000000	1.17000000	1.39283883	0.94868330	68.96	3.64345337	3.63475626	1.00000000	1.40000000	1.00000000	0.90000000	230.7	98.8	147.9	172.6	135.2	
280	 401	  12	40.1000000	1.20000000	0.53000000	1.11803399	0.60000000	169.70	3.48858213	2.76671729	1.20000000	0.70000000	1.20000000	0.60000000	190.7	65.2	97.0	109.8	88.4	
281	 424	   7	42.4000000	0.70000000	0.33000000	0.67082039	0.53851648	63.43	1.70739502	1.68958047	0.60000000	0.70000000	0.60000000	0.50000000	207.5	68.1	100.5	117.6	92.1	

#5
liczenie
obiektów (w)	udzia³ punktów	pole obrazu(mm²)	
   30	100.00	12288.0000
nr.	x(pix.):	y(pix.):	x(mm):	y(mm):	powierzchnia:(mm²)	d³ugoœæ:(mm)	szerokoœæ:(mm)	k¹t:(°)	obwód:(mm)	obwód C.:(mm)	œrednica Fereta H(mm)	œrednica Fereta V(mm)	œredn. Martina:(mm)	œredn. sitowa:(mm)	œrednia jaskrawoœæ	R	G	B	Y	
2	 974	 882	97.4000000	88.2000000	1.21000000	1.47648231	0.94339811	61.70	3.76832007	3.71495285	1.20000000	1.40000000	1.10000000	1.04403065	225.6	105.9	156.2	166.3	141.6	
3	 146	 827	14.6000000	82.7000000	0.62000000	1.00000000	0.58309519	36.87	2.62766369	2.54772698	0.90000000	0.90000000	0.70000000	0.78102497	221.2	115.4	166.6	184.4	152.6	
4	1223	 766	122.300000	76.6000000	1.02000000	1.39283883	0.82462113	68.96	3.63177340	3.49517586	0.90000000	1.40000000	0.90000000	0.80000000	226.5	104.8	158.8	171.7	143.4	
5	 329	 720	32.9000000	72.0000000	2.21000000	2.22036033	1.14017543	35.84	5.80561369	5.52303762	2.10000000	1.60000000	1.80000000	1.27279221	226.3	124.4	164.9	187.0	154.6	
6	 944	 699	94.4000000	69.9000000	0.69000000	1.17046999	0.72801099	19.98	2.98701586	2.85191650	1.20000000	0.80000000	1.20000000	0.70000000	212.4	118.6	161.4	168.6	148.8	
7	 719	 675	71.9000000	67.5000000	1.10000000	1.36014705	0.86023253	53.97	3.55976529	3.50053051	1.30000000	1.20000000	1.20000000	0.98994949	231.9	114.2	163.9	176.7	149.8	
8	 206	 621	20.6000000	62.1000000	2.11000000	2.25610283	1.10453610	77.20	5.89659381	5.67049964	1.20000000	2.30000000	0.90000000	1.10000000	229.4	112.4	158.5	182.5	146.7	
9	 852	 616	85.2000000	61.6000000	0.35000000	0.67082039	0.53851648	26.57	1.67835304	1.67835304	0.70000000	0.60000000	0.60000000	0.50000000	207.9	118.9	160.6	151.3	146.4	
10	1215	 588	121.500000	58.8000000	0.73000000	1.64012195	0.50000000	37.57	3.93407429	3.77652670	1.50000000	1.20000000	1.00000000	0.72111026	221.2	97.9	143.0	151.4	129.7	
11	 409	 549	40.9000000	54.9000000	0.53000000	0.92195445	0.64031242	130.60	2.49760738	2.47084677	0.90000000	0.80000000	0.90000000	0.70000000	219.6	132.6	182.4	191.1	167.7	
12	 850	 475	85.0000000	47.5000000	0.67000000	1.20415946	0.60000000	175.24	2.90491521	2.87983872	1.30000000	0.80000000	1.30000000	0.63245553	226.1	107.0	152.6	166.7	139.9	
13	 823	 453	82.3000000	45.3000000	0.11000000	0.36055513	0.10000000	56.31	0.73005631	0.73005631	0.30000000	0.40000000	0.30000000	0.20000000	174.4	103.6	137.6	132.7	126.4	
14	1157	 432	115.700000	43.2000000	2.34000000	2.02484567	1.44222051	32.91	5.84248036	5.43462143	1.80000000	1.80000000	1.80000000	1.41421356	224.5	121.2	164.6	189.9	153.7	
15	 582	 406	58.2000000	40.6000000	0.38000000	0.76157731	0.41231056	23.20	1.80738564	1.80738564	0.80000000	0.60000000	0.70000000	0.50000000	218.7	121.3	171.4	181.4	156.8	
16	 816	 361	81.6000000	36.1000000	0.54000000	1.20415946	0.36055513	48.37	2.60011744	2.53956231	1.00000000	1.00000000	0.70000000	0.56568542	221.1	100.4	137.3	140.9	126.0	
17	  70	 288	7.00000000	28.8000000	1.52000000	1.83575598	1.20830460	119.36	5.18112336	4.84440956	1.70000000	1.70000000	1.30000000	1.06301458	227.9	98.1	137.5	161.4	127.7	
18	  79	 239	7.90000000	23.9000000	0.87000000	1.39283883	0.72801099	21.04	3.41797154	3.32107117	1.40000000	0.80000000	1.20000000	0.70000000	232.2	109.2	156.5	176.3	143.8	
19	 182	 151	18.2000000	15.1000000	1.94000000	2.03960781	1.21655251	168.69	5.30391334	5.09836185	2.10000000	1.20000000	2.10000000	1.10000000	231.2	106.3	154.5	180.0	142.2	
20	 419	 148	41.9000000	14.8000000	1.15000000	1.86010752	0.64031242	36.25	4.32648983	4.27160115	1.80000000	1.20000000	1.40000000	0.80622577	229.4	104.9	151.8	179.1	140.1	
21	 182	 124	18.2000000	12.4000000	1.36000000	1.87882942	0.85440037	64.80	4.44122961	4.35924703	1.10000000	1.80000000	0.90000000	0.80622577	231.6	88.8	131.0	161.0	121.0	
22	1063	 111	106.300000	11.1000000	0.19000000	0.50000000	0.28284271	36.87	1.07966913	1.07966913	0.50000000	0.40000000	0.50000000	0.30000000	207.9	87.1	126.6	144.3	116.1	
23	 231	 106	23.1000000	10.6000000	0.81000000	1.20415946	0.64031242	41.63	3.02863911	3.00394291	1.10000000	1.00000000	1.00000000	0.72111026	230.9	93.0	142.1	175.1	130.3	
24	 333	  31	33.3000000	3.10000000	0.22000000	0.60827625	0.20000000	 9.46	1.31635146	1.31635146	0.70000000	0.40000000	0.60000000	0.30000000	203.7	87.4	117.8	136.4	110.0	
25	 510	  24	51.0000000	2.40000000	1.27000000	1.55241747	1.01980390	14.93	4.10211617	3.94083496	1.60000000	1.20000000	1.50000000	1.07703296	232.9	101.9	144.9	168.5	134.1	

#6
liczenie
obiektów (w)	udzia³ punktów	pole obrazu(mm²)	
   15	100.00	12288.0000
nr.	x(pix.):	y(pix.):	x(mm):	y(mm):	powierzchnia:(mm²)	d³ugoœæ:(mm)	szerokoœæ:(mm)	k¹t:(°)	obwód:(mm)	obwód C.:(mm)	œrednica Fereta H(mm)	œrednica Fereta V(mm)	œredn. Martina:(mm)	œredn. sitowa:(mm)	œrednia jaskrawoœæ	R	G	B	Y	
2	 789	 812	78.9000000	81.2000000	1.15000000	1.52643375	0.80622577	58.39	3.80659148	3.80169531	1.00000000	1.50000000	1.00000000	0.82462113	232.8	89.5	140.0	176.1	128.2	
3	 236	 767	23.6000000	76.7000000	0.50000000	0.86023253	0.58309519	54.46	2.25684330	2.23164971	0.80000000	0.80000000	0.80000000	0.70710678	217.6	95.1	143.5	165.5	130.8	
4	 755	 727	75.5000000	72.7000000	0.62000000	0.94868330	0.72801099	161.57	2.60798348	2.55602928	1.00000000	0.90000000	1.00000000	0.80000000	220.4	93.5	141.4	168.8	129.4	
5	 520	 502	52.0000000	50.2000000	1.41000000	1.36014705	1.21655251	107.10	4.05930053	3.97680861	1.30000000	1.40000000	1.30000000	1.30000000	233.6	104.4	145.2	165.5	134.6	
6	1214	 411	121.400000	41.1000000	0.77000000	1.20830460	0.63245553	24.44	2.98601860	2.96994245	1.20000000	0.80000000	1.20000000	0.70000000	233.0	78.6	125.2	167.8	115.2	
8	 575	 409	57.5000000	40.9000000	0.12000000	0.36055513	0.14142136	56.31	0.88929222	0.88929222	0.40000000	0.40000000	0.40000000	0.28284271	191.3	83.4	112.8	119.2	104.2	
9	 659	 398	65.9000000	39.8000000	2.65000000	2.50000000	1.33416641	163.74	6.46510249	6.01661618	2.50000000	1.50000000	2.40000000	1.40000000	235.2	101.9	146.2	168.7	134.8	
10	1084	 323	108.400000	32.3000000	2.30000000	1.99248588	1.55241747	162.47	6.91394822	5.70009494	2.00000000	1.70000000	2.00000000	1.60312195	229.6	91.3	139.9	170.7	128.1	
11	1256	 217	125.600000	21.7000000	0.19000000	0.50000000	0.28284271	36.87	1.15952416	1.15952416	0.50000000	0.40000000	0.50000000	0.30000000	212.4	64.8	99.7	122.6	91.1	
12	 644	 206	64.4000000	20.6000000	1.40000000	1.43178211	1.11803399	114.78	3.91179439	3.87169224	1.20000000	1.40000000	1.20000000	1.10000000	228.7	102.6	148.6	165.0	136.0	
13	1183	 180	118.300000	18.0000000	1.06000000	1.81107703	0.80000000	173.66	4.37329049	4.21875718	1.90000000	1.00000000	1.60000000	0.90553851	224.9	78.9	121.5	149.8	111.2	
14	 939	 174	93.9000000	17.4000000	1.21000000	1.72046505	0.86023253	144.46	4.84720588	4.35524830	1.60000000	1.40000000	1.30000000	0.98994949	224.3	95.5	139.7	159.2	128.0	
15	 578	 167	57.8000000	16.7000000	0.15000000	0.42426407	0.28284271	135.00	0.96344136	0.96344136	0.40000000	0.40000000	0.40000000	0.30000000	199.5	110.7	149.2	146.3	136.7	
16	 923	 146	92.3000000	14.6000000	1.77000000	1.78885438	1.20830460	153.43	5.10391169	4.62663027	1.70000000	1.40000000	1.70000000	1.25299641	228.6	104.4	151.6	173.5	139.2	
17	1041	 121	104.100000	12.1000000	3.02000000	3.54682957	1.14017543	158.50	9.03245751	7.79854623	3.40000000	1.60000000	2.50000000	1.23693169	236.3	101.2	154.0	180.5	140.4	
19	 918	  73	91.8000000	7.30000000	0.18000000	0.44721360	0.31622777	153.43	1.09748369	1.09748369	0.50000000	0.40000000	0.50000000	0.30000000	211.4	89.6	134.6	162.1	123.5	

#7
liczenie
obiektów (w)	udzia³ punktów	pole obrazu(mm²)	
   25	100.00	12288.0000
nr.	x(pix.):	y(pix.):	x(mm):	y(mm):	powierzchnia:(mm²)	d³ugoœæ:(mm)	szerokoœæ:(mm)	k¹t:(°)	obwód:(mm)	obwód C.:(mm)	œrednica Fereta H(mm)	œrednica Fereta V(mm)	œredn. Martina:(mm)	œredn. sitowa:(mm)	œrednia jaskrawoœæ	R	G	B	Y	
1	 951	 937	95.1000000	93.7000000	1.05000000	1.74928557	0.67082039	30.96	4.22008174	3.99118790	1.60000000	1.10000000	1.50000000	0.80622577	228.7	98.9	143.9	160.9	131.7	
2	1117	 910	111.700000	91.0000000	0.77000000	1.33416641	0.60000000	77.01	3.09969345	3.06610963	0.70000000	1.40000000	0.70000000	0.60000000	220.4	110.8	163.4	182.7	149.1	
3	 761	 845	76.1000000	84.5000000	0.50000000	0.85440037	0.50990195	159.44	2.21077865	2.18558506	0.90000000	0.70000000	0.90000000	0.60000000	223.9	97.2	135.3	151.5	125.1	
4	 446	 830	44.6000000	83.0000000	0.33000000	0.64031242	0.50000000	38.66	1.74815911	1.74575050	0.70000000	0.60000000	0.70000000	0.50000000	222.1	86.8	122.8	151.8	114.7	
5	1069	 789	106.900000	78.9000000	1.04000000	1.45602198	0.80622577	15.95	3.84428609	3.68042667	1.50000000	1.00000000	1.40000000	0.94868330	231.7	115.0	166.7	184.1	152.4	
6	   7	 789	0.70000000	78.9000000	0.76000000	1.08166538	0.72111026	146.31	2.93326210	2.89522437	1.10000000	0.80000000	1.10000000	0.70000000	228.5	110.0	152.3	172.6	141.2	
7	 899	 753	89.9000000	75.3000000	1.18000000	1.64012195	0.78102497	37.57	4.39755456	4.10825108	1.50000000	1.40000000	1.30000000	1.00000000	229.5	98.6	143.8	164.0	131.8	
8	 224	 698	22.4000000	69.8000000	1.22000000	1.55241747	0.90553851	75.07	3.99817293	3.93838607	1.10000000	1.60000000	0.90000000	1.04403065	229.1	92.5	131.0	153.4	121.3	
9	 881	 665	88.1000000	66.5000000	1.18000000	1.30384048	1.00000000	 4.40	3.70957688	3.63252754	1.40000000	1.20000000	1.30000000	1.10000000	225.6	118.6	159.9	177.0	148.8	
10	 870	 651	87.0000000	65.1000000	0.11000000	0.36055513	0.10000000	33.69	0.79907048	0.79907048	0.40000000	0.30000000	0.40000000	0.20000000	191.4	84.3	113.1	120.2	104.5	
11	 621	 620	62.1000000	62.0000000	1.77000000	1.74642492	1.17046999	23.63	4.66051830	4.56226770	1.70000000	1.40000000	1.70000000	1.17046999	234.1	112.5	157.6	175.5	145.4	
12	 325	 571	32.5000000	57.1000000	0.80000000	1.11803399	0.80000000	169.70	3.03255631	3.01026873	1.20000000	0.90000000	1.20000000	0.70710678	221.8	100.7	145.5	164.5	133.5	
13	1234	 563	123.400000	56.3000000	1.51000000	1.84390889	0.80622577	102.53	4.52650936	4.44762975	1.10000000	1.80000000	0.90000000	0.92195445	227.9	115.5	168.1	188.6	153.9	
14	 321	 560	32.1000000	56.0000000	0.35000000	0.64031242	0.42426407	51.34	1.87792717	1.83491903	0.70000000	0.70000000	0.70000000	0.64031242	211.0	85.8	117.5	131.7	109.0	
15	 834	 551	83.4000000	55.1000000	0.13000000	0.36055513	0.22360680	123.69	0.93005631	0.91224175	0.40000000	0.40000000	0.40000000	0.30000000	182.1	76.6	102.8	118.4	96.1	
16	  79	 542	7.90000000	54.2000000	2.97000000	5.02195181	0.90553851	12.65	10.8404540	10.4368420	5.00000000	1.50000000	4.00000000	0.92195445	233.8	89.7	123.6	143.5	115.1	
17	  31	 541	3.10000000	54.1000000	1.71000000	1.61554944	1.17046999	68.20	4.61889976	4.45183428	1.50000000	1.60000000	1.40000000	1.27279221	232.6	114.9	156.7	173.5	145.4	
19	 308	 290	30.8000000	29.0000000	1.23000000	1.58113883	0.82462113	18.43	3.88561616	3.82038995	1.60000000	1.00000000	1.60000000	0.90000000	229.2	120.6	162.8	174.7	150.9	
20	 512	 235	51.2000000	23.5000000	0.80000000	1.11803399	0.80000000	79.70	3.02808329	3.00712277	0.90000000	1.20000000	0.80000000	0.80000000	225.7	95.7	134.1	157.0	124.4	
21	 131	  24	13.1000000	2.40000000	1.01000000	1.52643375	0.67082039	31.61	3.56139486	3.48500166	1.40000000	1.00000000	1.30000000	0.92195445	231.4	99.7	138.8	164.0	129.2	
22	1243	   9	124.300000	0.90000000	0.74000000	1.16619038	0.67082039	149.04	2.98689960	2.90603338	1.10000000	1.00000000	1.00000000	0.80622577	221.4	102.9	152.4	178.4	139.8	

#8
liczenie
obiektów (w)	udzia³ punktów	pole obrazu(mm²)	
   14	100.00	12288.0000
nr.	x(pix.):	y(pix.):	x(mm):	y(mm):	powierzchnia:(mm²)	d³ugoœæ:(mm)	szerokoœæ:(mm)	k¹t:(°)	obwód:(mm)	obwód C.:(mm)	œrednica Fereta H(mm)	œrednica Fereta V(mm)	œredn. Martina:(mm)	œredn. sitowa:(mm)	œrednia jaskrawoœæ	R	G	B	Y	
1	 824	 859	82.4000000	85.9000000	0.17000000	0.44721360	0.31622777	153.43	1.11876007	1.11876007	0.50000000	0.40000000	0.50000000	0.30000000	202.4	73.8	108.1	129.1	99.5	
2	 798	 830	79.8000000	83.0000000	1.18000000	1.64012195	0.86023253	37.57	4.02611449	3.93564606	1.50000000	1.20000000	1.40000000	0.94339811	231.3	98.7	152.5	175.8	138.2	
3	 318	 679	31.8000000	67.9000000	1.41000000	1.70293864	0.86023253	49.76	4.40661957	4.25871566	1.60000000	1.40000000	1.40000000	0.98994949	234.0	98.9	152.5	178.4	138.6	
4	 209	 674	20.9000000	67.4000000	1.94000000	2.10237960	1.07703296	25.35	5.19942021	5.07402901	2.10000000	1.40000000	2.00000000	1.14017543	237.0	96.8	149.5	178.3	136.2	
5	 212	 580	21.2000000	58.0000000	1.19000000	1.50000000	0.72111026	36.87	3.97896947	3.80705396	1.50000000	1.20000000	1.20000000	0.98994949	232.6	98.2	152.1	175.8	137.8	
6	 528	 529	52.8000000	52.9000000	3.21000000	2.42074369	1.70293864	51.71	6.72646852	6.45491821	1.90000000	2.40000000	1.60000000	1.58113883	235.7	101.3	153.4	180.1	140.0	
7	 864	 406	86.4000000	40.6000000	4.39000000	3.76430604	1.42126704	39.61	8.79432337	8.49369995	3.20000000	2.60000000	2.30000000	1.42126704	242.5	104.1	156.9	182.9	143.2	
8	 638	 322	63.8000000	32.2000000	1.08000000	1.30000000	0.94868330	22.62	3.46860883	3.43297971	1.30000000	1.00000000	1.30000000	0.90000000	231.6	103.9	157.6	179.5	143.2	
9	1103	 279	110.300000	27.9000000	0.10000000	0.36055513	0.10000000	123.69	0.82426407	0.82426407	0.30000000	0.40000000	0.30000000	0.22360680	178.9	86.5	123.3	130.4	112.4	
10	 227	 161	22.7000000	16.1000000	1.97000000	2.06155281	1.30000000	67.17	5.57507254	5.33895626	1.50000000	2.00000000	1.10000000	1.31529464	235.3	92.6	144.7	175.3	131.7	

#9
liczenie
obiektów (w)	udzia³ punktów	pole obrazu(mm²)	
   18	100.00	12288.0000
nr.	x(pix.):	y(pix.):	x(mm):	y(mm):	powierzchnia:(mm²)	d³ugoœæ:(mm)	szerokoœæ:(mm)	k¹t:(°)	obwód:(mm)	obwód C.:(mm)	œrednica Fereta H(mm)	œrednica Fereta V(mm)	œredn. Martina:(mm)	œredn. sitowa:(mm)	œrednia jaskrawoœæ	R	G	B	Y	
1	1247	 900	124.700000	90.0000000	0.30000000	0.58309519	0.44721360	30.96	1.62109048	1.61371145	0.60000000	0.60000000	0.60000000	0.50000000	212.5	81.6	121.9	150.5	112.5	
2	 913	 888	91.3000000	88.8000000	0.99000000	1.38924440	0.89442719	149.74	4.03398950	3.43716309	1.40000000	1.00000000	1.30000000	0.90000000	220.7	114.6	160.1	176.3	147.6	
3	 684	 825	68.4000000	82.5000000	1.73000000	1.83847763	1.17046999	67.62	5.19039472	4.96004561	1.60000000	1.80000000	1.10000000	1.26491106	232.8	98.2	143.6	162.9	131.5	
5	1203	 762	120.300000	76.2000000	2.05000000	1.70880075	1.36014705	20.56	4.94443722	4.82469048	1.70000000	1.40000000	1.70000000	1.30000000	237.9	115.3	162.9	183.5	150.3	
6	1146	 698	114.600000	69.8000000	0.77000000	1.11803399	0.80000000	10.30	3.35351455	3.04391123	1.20000000	1.00000000	1.10000000	0.84852814	221.1	116.2	167.7	184.1	153.4	
7	1068	 664	106.800000	66.4000000	3.54000000	3.64005494	1.58113883	37.18	9.00508348	8.38670403	3.00000000	2.80000000	0.90000000	1.48660687	236.1	102.1	153.6	176.9	140.1	
8	 999	 670	99.9000000	67.0000000	1.23000000	1.58113883	1.04403065	161.57	4.42002179	4.15632428	1.60000000	1.40000000	1.20000000	0.98994949	224.5	107.2	154.8	173.4	141.9	
9	  53	 604	5.30000000	60.4000000	0.19000000	0.44721360	0.31622777	26.57	1.25366311	1.25366311	0.50000000	0.50000000	0.50000000	0.42426407	195.5	86.5	117.4	129.0	108.8	
10	 588	 559	58.8000000	55.9000000	1.94000000	2.70185122	0.72111026	38.99	6.51102292	6.17052282	2.40000000	2.00000000	1.20000000	1.00000000	224.9	91.1	132.8	150.2	121.6	
11	 912	 564	91.2000000	56.4000000	0.62000000	0.94868330	0.82462113	18.43	2.60351046	2.53530872	1.00000000	0.90000000	0.90000000	0.70710678	213.0	104.2	157.2	174.7	142.6	
12	 945	 534	94.5000000	53.4000000	2.30000000	2.20227155	1.28062485	129.47	5.60919532	5.50712507	1.80000000	1.90000000	1.50000000	1.34164079	229.3	98.6	144.4	166.6	132.5	
13	 144	 519	14.4000000	51.9000000	1.52000000	1.86815417	1.01980390	105.52	4.65518330	4.47853469	1.10000000	1.90000000	1.00000000	1.00000000	230.7	92.8	137.3	158.4	125.7	
14	 656	 520	65.6000000	52.0000000	0.11000000	0.31622777	0.20000000	161.57	0.79907048	0.79907048	0.40000000	0.30000000	0.40000000	0.36055513	195.5	78.9	111.7	120.0	102.2	
15	 108	 467	10.8000000	46.7000000	1.60000000	1.77200451	1.11803399	73.61	4.61772944	4.42036743	1.40000000	1.70000000	1.10000000	1.23693169	230.5	94.2	139.8	161.4	127.9	
16	  21	 398	2.10000000	39.8000000	1.51000000	1.43178211	1.21655251	167.91	4.12010187	4.06503249	1.50000000	1.30000000	1.50000000	1.27279221	221.8	119.0	158.0	175.8	147.7	
17	 635	 394	63.5000000	39.4000000	1.19000000	2.06155281	0.72801099	22.83	4.87278536	4.67705301	2.00000000	1.20000000	1.50000000	0.80622577	227.3	85.6	123.1	137.6	112.9	
18	 888	 115	88.8000000	11.5000000	1.23000000	1.34536240	1.13137085	41.99	3.88714894	3.81330470	1.40000000	1.20000000	1.40000000	1.10000000	212.1	112.7	155.3	176.4	144.2	
19	 136	  16	13.6000000	1.60000000	1.01000000	1.31529464	0.80000000	 8.75	3.53202382	3.42953194	1.40000000	1.00000000	1.30000000	0.90000000	230.4	107.8	158.1	177.9	144.5	

#10
liczenie
obiektów (w)	udzia³ punktów	pole obrazu(mm²)	
   20	100.00	12288.0000
nr.	x(pix.):	y(pix.):	x(mm):	y(mm):	powierzchnia:(mm²)	d³ugoœæ:(mm)	szerokoœæ:(mm)	k¹t:(°)	obwód:(mm)	obwód C.:(mm)	œrednica Fereta H(mm)	œrednica Fereta V(mm)	œredn. Martina:(mm)	œredn. sitowa:(mm)	œrednia jaskrawoœæ	R	G	B	Y	
1	 116	 865	11.6000000	86.5000000	3.52000000	2.91547595	1.48660687	112.17	7.31293146	7.08110165	1.60000000	2.80000000	1.30000000	1.33416641	239.2	82.4	135.5	177.3	123.5	
2	 365	 806	36.5000000	80.6000000	2.75000000	2.57099203	1.21655251	103.50	6.45759310	6.14253336	1.50000000	2.60000000	1.40000000	1.36014705	235.6	86.1	143.7	180.4	129.7	
3	 545	 750	54.5000000	75.0000000	1.95000000	2.05182845	0.98994949	136.97	5.38890147	5.10748430	1.80000000	1.80000000	1.50000000	1.13137085	231.0	89.1	145.4	176.6	131.3	
4	 838	 672	83.8000000	67.2000000	4.25000000	4.55411901	1.50332964	81.16	10.7662849	10.2551022	1.70000000	4.60000000	1.00000000	1.40356688	237.0	84.0	137.9	174.3	125.0	
5	 741	 616	74.1000000	61.6000000	1.17000000	1.39283883	1.04403065	68.96	3.79002278	3.74495573	1.30000000	1.40000000	1.30000000	0.98994949	230.3	91.9	151.0	176.6	135.4	
6	1144	 534	114.400000	53.4000000	0.90000000	1.52315462	0.63245553	66.80	3.55411263	3.50513529	0.90000000	1.50000000	0.70000000	0.60827625	226.9	66.4	110.4	157.1	101.7	
7	 427	 495	42.7000000	49.5000000	0.50000000	0.86023253	0.58309519	54.46	2.20105982	2.18976359	0.70000000	0.80000000	0.70000000	0.60000000	224.7	72.8	121.5	165.5	111.1	
8	 560	 480	56.0000000	48.0000000	0.39000000	0.78102497	0.42426407	39.81	1.89022835	1.87241379	0.80000000	0.60000000	0.70000000	0.50000000	219.2	70.2	112.2	156.8	103.8	
9	 495	 410	49.5000000	41.0000000	0.94000000	1.20415946	0.92195445	41.63	3.39451859	3.31136472	1.00000000	1.20000000	0.90000000	0.80622577	228.6	69.6	116.1	156.7	106.0	
10	 294	 335	29.4000000	33.5000000	1.12000000	1.84390889	0.60827625	12.53	4.10718728	4.08205516	1.90000000	0.90000000	1.70000000	0.82462113	233.8	70.7	117.8	160.3	107.7	
11	 861	 317	86.1000000	31.7000000	0.89000000	1.39283883	0.72801099	21.04	3.46760909	3.42691159	1.40000000	1.00000000	1.20000000	0.76157731	229.7	68.0	115.7	159.0	105.5	
12	 588	 188	58.8000000	18.8000000	8.07000000	9.04267659	1.20415946	169.81	20.5441726	18.9208734	9.00000000	2.40000000	4.10000000	1.14017543	242.2	78.2	130.7	170.9	118.7	
13	 720	 179	72.0000000	17.9000000	0.82000000	1.14017543	0.82462113	164.74	2.99570943	2.96008032	1.20000000	0.80000000	1.20000000	0.70000000	228.3	74.7	126.8	170.8	115.3	
14	 301	 148	30.1000000	14.8000000	2.07000000	2.37065392	0.89442719	117.65	5.50103260	5.42751649	1.40000000	2.20000000	1.10000000	1.07703296	235.2	73.5	122.1	160.6	111.1	
15	1082	 132	108.200000	13.2000000	0.24000000	0.58309519	0.44721360	59.04	1.40160279	1.38378823	0.50000000	0.60000000	0.50000000	0.40000000	214.4	73.5	113.7	153.9	105.5	
16	 584	  99	58.4000000	9.90000000	0.10000000	0.31622777	0.20000000	18.43	0.80644951	0.80644951	0.40000000	0.40000000	0.40000000	0.14142136	180.4	57.7	87.1	118.3	81.2	
17	 455	  48	45.5000000	4.80000000	2.51000000	2.98328678	1.01980390	13.57	6.77917983	6.68132693	3.00000000	1.00000000	3.00000000	0.90000000	241.2	78.6	130.5	175.0	119.1	
18	 731	  13	73.1000000	1.30000000	1.11000000	1.55241747	0.80622577	75.07	3.85216771	3.76945028	1.00000000	1.60000000	0.80000000	0.92195445	227.0	78.0	129.5	174.9	118.4	
