
#1
liczenie
obiektów (w)	udział punktów	pole obrazu(mm²)
	58	100.00	12288.0000
nr.	x(pix.):	y(pix.):	x(mm):	y(mm):	powierzchnia:(mm²)	długość:(mm)	szerokość:(mm)	kąt:(°)	obwód:(mm)	obwód C.:(mm)	średnica Fereta H(mm)	średnica Fereta V(mm)	średn. Martina:(mm)	średn. sitowa:(mm)	średnia jaskrawość	R	G	B	Y
1	182.50000000	918.50000000	18.20000000	91.90000000	1.07000000	1.50000000	1.10000000	99.61000000	4.81837652	8.21654502	1.40000000	1.10000000	1.50000000	1.16447418	76.70000000	59.40000000	81.50000000	97.40000000	76.70000000
2	509.50000000	841.50000000	51.00000000	84.20000000	8.26000000	10.10000000	1.00000000	94.92000000	26.86345563	41.03485911	11.20000000	3.00000000	10.10000000	3.24200439	101.90000000	79.00000000	109.50000000	122.70000000	101.90000000
3	1084.50000000	848.50000000	108.50000000	84.90000000	0.29000000	0.80000000	0.50000000	83.68000000	2.04852812	4.13862761	0.70000000	0.50000000	0.80000000	0.60765078	74.10000000	56.80000000	80.80000000	85.70000000	74.20000000
4	412.50000000	839.50000000	41.20000000	84.00000000	0.39000000	0.82150841	0.70000000	0.00000000	2.33137081	4.78758396	0.70000000	0.70000000	0.80000000	0.70467256	97.90000000	76.30000000	104.50000000	121.00000000	98.00000000
5	81.50000000	826.50000000	8.20000000	82.70000000	1.52000000	2.03614693	1.00000000	52.65000000	5.66274166	9.81814182	2.00000000	1.20000000	2.00000000	1.39115927	139.30000000	105.40000000	150.20000000	172.80000000	139.40000000
6	112.50000000	791.50000000	11.20000000	79.20000000	1.76000000	2.18798923	1.10000000	178.27000000	5.52132031	10.61426712	2.10000000	1.10000000	2.20000000	1.49483625	159.80000000	121.90000000	172.90000000	191.50000000	159.80000000
7	566.50000000	796.50000000	56.70000000	79.70000000	0.55000000	1.02189159	0.70000000	174.05000000	2.78994948	5.45684717	0.90000000	0.70000000	1.00000000	0.83301594	135.40000000	102.30000000	147.00000000	162.60000000	135.40000000
8	196.50000000	792.50000000	19.70000000	79.20000000	0.49000000	0.93569012	0.70000000	83.69000000	2.61421351	5.16537983	0.80000000	0.70000000	0.90000000	0.78986542	133.10000000	102.00000000	144.30000000	156.50000000	133.10000000
9	20.50000000	788.50000000	2.10000000	78.90000000	0.57000000	1.12277861	0.80000000	124.75000000	2.95563487	6.08321954	1.10000000	0.70000000	1.10000000	0.84816292	132.20000000	101.70000000	142.00000000	161.50000000	132.20000000
10	566.50000000	738.50000000	56.70000000	73.90000000	1.09000000	1.92137299	0.80000000	147.98000000	4.54558436	8.91638451	1.70000000	0.90000000	1.90000000	1.17806244	130.20000000	99.10000000	140.60000000	158.10000000	130.20000000
11	239.50000000	735.50000000	24.00000000	73.50000000	0.66000000	1.15593767	0.80000000	40.24000000	3.07279218	6.19573806	0.90000000	0.90000000	1.20000000	0.91322062	162.50000000	127.10000000	175.90000000	186.50000000	162.50000000
12	410.50000000	726.50000000	41.10000000	72.70000000	0.61000000	1.17320871	0.80000000	7.95000000	3.03847758	6.25458272	0.90000000	0.80000000	1.20000000	0.87767302	138.40000000	105.70000000	150.20000000	163.30000000	138.40000000
13	526.50000000	713.50000000	52.70000000	71.40000000	0.38000000	0.80000000	0.70000000	128.72000000	2.57989894	4.71762642	0.80000000	0.60000000	0.80000000	0.69557963	87.70000000	70.30000000	93.30000000	104.70000000	87.70000000
14	56.50000000	707.50000000	5.70000000	70.80000000	0.46000000	0.90000000	0.70000000	92.59000000	2.55563488	5.04620245	0.80000000	0.70000000	0.90000000	0.76113336	76.80000000	62.70000000	81.70000000	87.90000000	76.70000000
15	577.50000000	704.50000000	57.80000000	70.50000000	0.33000000	0.86312323	0.70000000	136.43000000	2.43847759	4.92407547	0.70000000	0.60000000	0.90000000	0.64327510	102.00000000	81.90000000	109.40000000	116.20000000	102.00000000
16	83.50000000	697.50000000	8.30000000	69.80000000	1.46000000	2.08504429	1.10000000	161.46000000	5.22842708	10.24684636	1.90000000	1.20000000	2.10000000	1.36342574	122.70000000	94.10000000	132.00000000	149.60000000	122.60000000
17	101.50000000	650.50000000	10.20000000	65.00000000	0.41000000	0.85116968	0.70000000	93.41000000	2.38994946	4.88472087	0.70000000	0.70000000	0.90000000	0.71809610	112.20000000	86.50000000	121.20000000	133.80000000	112.30000000
18	307.50000000	603.50000000	30.80000000	60.40000000	0.41000000	0.99534569	0.70000000	86.56000000	2.61421353	5.36657317	0.90000000	0.60000000	1.00000000	0.72251520	142.70000000	110.10000000	154.00000000	170.00000000	142.70000000
19	869.50000000	588.50000000	87.00000000	58.90000000	0.87000000	1.38158188	0.90000000	39.69000000	3.66274165	7.24786083	1.30000000	0.80000000	1.40000000	1.05248202	162.10000000	131.20000000	172.90000000	187.70000000	162.20000000
20	586.50000000	561.50000000	58.70000000	56.20000000	1.03000000	1.51964874	0.90000000	128.58000000	3.92132032	7.72670192	1.40000000	0.90000000	1.50000000	1.14239684	141.50000000	108.80000000	152.70000000	169.90000000	141.50000000
21	418.50000000	527.50000000	41.90000000	52.80000000	0.51000000	0.95967379	0.80000000	113.17000000	2.73137082	5.53956365	0.90000000	0.70000000	1.00000000	0.80582391	142.20000000	109.50000000	153.80000000	168.20000000	142.20000000
22	780.50000000	520.50000000	78.10000000	52.10000000	2.65000000	4.11544952	0.90000000	123.62000000	9.30538225	17.42228480	3.80000000	1.00000000	4.10000000	1.83686820	136.80000000	104.70000000	147.20000000	167.50000000	136.80000000
23	50.50000000	513.50000000	5.10000000	51.40000000	1.98000000	2.80000000	1.00000000	8.36000000	7.50121922	12.61767684	2.80000000	1.30000000	2.80000000	1.58576420	136.30000000	105.30000000	146.70000000	164.20000000	136.30000000
24	184.50000000	508.50000000	18.40000000	50.90000000	1.08000000	1.80000000	0.90000000	100.85000000	4.55563489	8.71960339	1.70000000	0.80000000	1.80000000	1.16992842	153.60000000	116.90000000	166.70000000	182.70000000	153.60000000
25	884.50000000	511.50000000	88.50000000	51.20000000	1.33000000	1.75418758	1.00000000	87.19000000	4.49705621	8.81551192	1.70000000	0.90000000	1.80000000	1.30131034	153.00000000	118.80000000	165.20000000	179.60000000	153.00000000
26	733.50000000	491.50000000	73.40000000	49.20000000	0.27000000	0.78633900	0.60000000	175.53000000	1.98994946	4.37500579	0.70000000	0.50000000	0.80000000	0.58086873	101.20000000	80.80000000	108.90000000	115.50000000	101.20000000
27	794.50000000	478.50000000	79.50000000	47.90000000	0.42000000	0.82844439	0.80000000	22.10000000	2.38994946	5.11629915	0.70000000	0.70000000	0.80000000	0.72690743	123.20000000	93.70000000	133.50000000	147.90000000	123.20000000
28	1259.50000000	445.50000000	126.00000000	44.60000000	0.68000000	1.25340214	0.70000000	42.66000000	3.23847760	6.26055881	1.20000000	0.70000000	1.30000000	0.92705808	103.20000000	76.20000000	112.50000000	126.10000000	103.20000000
29	166.50000000	405.50000000	16.70000000	40.60000000	0.70000000	1.24380398	0.80000000	71.87000000	3.60416299	6.49671434	1.20000000	0.80000000	1.20000000	0.94069202	156.10000000	122.20000000	168.80000000	179.50000000	156.10000000
30	1201.50000000	377.50000000	120.20000000	37.80000000	0.54000000	1.00000000	0.70000000	106.82000000	2.73137082	5.38236898	0.90000000	0.70000000	1.00000000	0.82918596	128.10000000	94.70000000	140.00000000	153.90000000	128.10000000
31	1249.50000000	368.50000000	125.00000000	36.90000000	0.56000000	1.18788242	0.70000000	10.22000000	3.23847759	6.03040308	1.20000000	0.70000000	1.20000000	0.84062355	128.80000000	96.00000000	140.10000000	156.60000000	128.80000000
32	279.50000000	335.50000000	28.00000000	33.60000000	1.70000000	2.30000000	0.90000000	95.74000000	5.94558437	10.54020574	2.30000000	1.00000000	2.30000000	1.47122644	167.00000000	130.70000000	180.10000000	194.70000000	167.00000000
33	430.50000000	330.50000000	43.10000000	33.10000000	1.33000000	2.11484051	0.90000000	52.05000000	4.88700571	9.85994319	2.00000000	0.90000000	2.10000000	1.29886196	163.60000000	124.10000000	177.40000000	196.60000000	163.60000000
34	39.50000000	330.50000000	4.00000000	33.10000000	0.89000000	1.30000000	0.90000000	93.98000000	3.63847758	6.96874271	1.30000000	0.90000000	1.30000000	1.06151637	150.80000000	118.80000000	162.40000000	175.60000000	150.90000000
35	165.50000000	301.50000000	16.60000000	30.20000000	1.51000000	2.32200851	1.10000000	57.44000000	5.79411247	11.09611421	2.00000000	1.10000000	2.30000000	1.38657553	123.40000000	93.40000000	132.90000000	153.10000000	123.40000000
36	1123.50000000	297.50000000	112.40000000	29.80000000	0.91000000	1.50830755	0.80000000	26.64000000	3.83847759	7.42349370	1.50000000	0.80000000	1.50000000	1.07344389	152.10000000	115.00000000	165.00000000	182.80000000	152.10000000
37	15.50000000	254.50000000	1.60000000	25.50000000	0.62000000	1.08860149	0.80000000	38.30000000	3.01421353	5.96790494	0.90000000	0.90000000	1.10000000	0.88848664	152.90000000	119.50000000	165.20000000	177.30000000	152.90000000
38	339.50000000	244.50000000	34.00000000	24.50000000	0.67000000	1.20000000	0.80000000	79.98000000	3.15563488	6.34617584	1.20000000	0.70000000	1.20000000	0.92016536	130.10000000	99.30000000	140.70000000	156.50000000	130.20000000
39	396.50000000	229.50000000	39.70000000	23.00000000	0.83000000	1.32944899	0.90000000	50.45000000	3.57989895	7.06914304	1.30000000	0.80000000	1.30000000	1.02800235	165.30000000	131.60000000	177.90000000	188.50000000	165.30000000
40	1092.50000000	229.50000000	109.20000000	23.00000000	1.09000000	1.71737881	0.90000000	46.03000000	5.25269113	8.42447053	1.70000000	1.00000000	1.70000000	1.17535735	71.90000000	56.40000000	77.70000000	83.10000000	71.90000000
41	452.50000000	181.50000000	45.20000000	18.20000000	0.56000000	0.94028559	0.80000000	61.19000000	2.83847758	5.47615372	0.80000000	0.80000000	0.90000000	0.84062355	150.20000000	116.30000000	162.60000000	175.60000000	150.20000000
42	1203.50000000	167.50000000	120.40000000	16.80000000	1.82000000	2.24876442	1.10000000	109.88000000	5.76984843	10.83230498	2.20000000	1.10000000	2.20000000	1.52017426	146.50000000	108.90000000	159.10000000	180.60000000	146.50000000
43	995.50000000	163.50000000	99.60000000	16.40000000	1.47000000	2.32976761	0.80000000	59.80000000	5.74558434	10.42906028	2.20000000	1.10000000	2.30000000	1.36808703	138.60000000	100.90000000	150.80000000	174.80000000	138.60000000
44	133.50000000	154.50000000	13.40000000	15.50000000	0.80000000	1.24406643	0.90000000	140.57000000	3.49705623	6.77921828	1.10000000	1.00000000	1.20000000	1.00925301	144.10000000	110.20000000	156.40000000	170.10000000	144.20000000
45	211.50000000	96.50000000	21.20000000	9.70000000	0.75000000	1.30000000	0.90000000	29.11000000	3.46274166	6.96874271	1.20000000	0.80000000	1.30000000	0.97720502	133.10000000	99.10000000	145.20000000	160.70000000	133.20000000
46	188.50000000	87.50000000	18.90000000	8.80000000	0.49000000	0.98073082	0.80000000	59.36000000	2.72132031	5.60874658	0.80000000	0.70000000	1.00000000	0.78582516	134.20000000	102.50000000	145.90000000	156.60000000	134.20000000
47	31.50000000	77.50000000	3.20000000	7.80000000	1.11000000	1.60000000	1.00000000	97.20000000	4.29705625	8.27725521	1.50000000	0.90000000	1.60000000	1.18882122	157.70000000	127.50000000	168.90000000	179.90000000	157.80000000
48	863.50000000	78.50000000	86.40000000	7.90000000	0.28000000	0.86814976	0.60000000	157.46000000	2.07279218	4.65087513	0.60000000	0.60000000	0.90000000	0.59172703	127.30000000	98.20000000	137.50000000	151.10000000	127.30000000
49	760.50000000	71.50000000	76.00000000	7.20000000	0.47000000	1.01638517	0.70000000	44.04000000	2.67279218	5.43808558	0.90000000	0.70000000	1.00000000	0.76945201	140.90000000	108.50000000	153.20000000	163.20000000	141.00000000
50	867.50000000	63.50000000	86.80000000	6.40000000	0.65000000	1.02411585	0.90000000	147.71000000	3.01421353	6.05107786	0.90000000	0.90000000	1.00000000	0.90972837	137.50000000	104.40000000	149.30000000	163.40000000	137.50000000
51	65.50000000	56.50000000	6.60000000	5.70000000	0.68000000	1.05730553	0.90000000	41.14000000	3.09705621	6.15898999	1.00000000	0.80000000	1.10000000	0.93048530	157.30000000	126.60000000	168.80000000	177.60000000	157.20000000
52	427.50000000	39.50000000	42.80000000	4.00000000	1.30000000	1.92331238	1.00000000	159.06000000	4.66274164	9.41436213	1.80000000	1.00000000	1.90000000	1.28655020	166.90000000	130.70000000	180.40000000	192.40000000	166.90000000
53	1063.50000000	44.50000000	106.40000000	4.50000000	0.52000000	1.00000000	0.80000000	100.57000000	2.67279216	5.67233358	0.90000000	0.70000000	1.00000000	0.80976439	108.70000000	81.90000000	117.60000000	133.10000000	108.70000000
54	190.50000000	35.50000000	19.10000000	3.60000000	1.09000000	1.42192078	1.00000000	99.43000000	3.95563487	7.66652756	1.40000000	0.90000000	1.40000000	1.17535735	182.20000000	152.30000000	193.40000000	203.00000000	182.20000000
55	460.50000000	15.50000000	46.10000000	1.60000000	0.58000000	1.11186619	0.70000000	45.46000000	3.03847760	5.76591805	1.10000000	0.70000000	1.10000000	0.85563587	148.30000000	116.90000000	159.60000000	172.30000000	148.30000000
56	1087.50000000	14.50000000	108.80000000	1.50000000	0.80000000	1.30092134	0.80000000	114.07000000	3.49705623	6.69438072	1.20000000	0.90000000	1.30000000	1.00925301	125.50000000	95.50000000	135.00000000	155.70000000	125.50000000
57	559.50000000	11.50000000	56.00000000	1.20000000	0.34000000	0.74751782	0.70000000	73.59000000	2.29705622	4.54873657	0.60000000	0.60000000	0.70000000	0.65795246	95.60000000	75.00000000	102.80000000	112.50000000	95.60000000
58	580.50000000	11.50000000	58.10000000	1.20000000	0.50000000	0.96247482	0.70000000	110.27000000	2.67279217	5.25541665	0.90000000	0.70000000	1.00000000	0.79388511	140.00000000	109.90000000	150.90000000	162.80000000	140.00000000

#2
liczenie
obiektów (w)	udział punktów	pole obrazu(mm²)
	216	100.00	12288.0000
nr.	x(pix.):	y(pix.):	x(mm):	y(mm):	powierzchnia:(mm²)	długość:(mm)	szerokość:(mm)	kąt:(°)	obwód:(mm)	obwód C.:(mm)	średnica Fereta H(mm)	średnica Fereta V(mm)	średn. Martina:(mm)	średn. sitowa:(mm)	średnia jaskrawość	R	G	B	Y
1	21.50000000	949.00000000	2.10000000	94.90000000	0.81000000	1.12363224	1.00000000	64.94000000	3.43847759	6.67724158	1.10000000	0.90000000	1.10000000	1.01240201	125.00000000	91.40000000	134.30000000	164.90000000	125.00000000
2	945.50000000	950.50000000	94.60000000	95.10000000	0.53000000	0.00000000	0.00000000	0.00000000	3.30710678	3.30710678	1.30000000	0.50000000	0.00000000	0.81758838	132.90000000	92.80000000	145.70000000	171.30000000	132.80000000
3	826.50000000	949.50000000	82.70000000	95.00000000	0.25000000	2.41801910	0.10000000	20.17000000	2.16568542	9.70509286	0.80000000	0.40000000	2.40000000	0.56418958	121.50000000	85.20000000	131.20000000	166.70000000	121.50000000
4	409.50000000	942.50000000	41.00000000	94.20000000	0.49000000	0.97523403	0.80000000	87.22000000	3.00416298	5.59065585	0.80000000	0.80000000	1.00000000	0.78582516	86.80000000	63.80000000	93.90000000	110.50000000	86.80000000
5	637.50000000	939.50000000	63.80000000	94.00000000	0.99000000	1.80000000	1.20000000	20.90000000	6.38406194	9.51926375	1.70000000	1.20000000	1.80000000	1.11988435	77.80000000	58.00000000	84.60000000	94.90000000	77.80000000
6	1201.50000000	933.50000000	120.20000000	93.40000000	1.23000000	1.54228373	1.10000000	138.13000000	4.48700571	8.35922668	1.30000000	1.10000000	1.50000000	1.24888688	86.70000000	59.80000000	94.20000000	119.20000000	86.70000000
7	975.50000000	914.50000000	97.60000000	91.50000000	1.71000000	2.14835186	1.20000000	32.19000000	5.79411248	10.73119606	2.00000000	1.20000000	2.10000000	1.47554723	113.60000000	80.90000000	122.60000000	152.60000000	113.60000000
8	268.50000000	916.50000000	26.90000000	91.70000000	1.68000000	2.60724411	1.00000000	118.20000000	6.50121922	11.90228866	2.50000000	1.00000000	2.60000000	1.46036853	103.30000000	75.90000000	111.30000000	133.80000000	103.30000000
9	627.50000000	915.50000000	62.80000000	91.60000000	1.86000000	2.50000000	1.40000000	40.83000000	9.82253953	12.49712260	2.00000000	2.00000000	2.50000000	1.53890401	84.80000000	63.70000000	92.10000000	102.40000000	84.80000000
10	908.50000000	906.50000000	90.90000000	90.70000000	0.75000000	1.25848026	1.00000000	144.44000000	3.34558439	7.11847832	1.00000000	0.80000000	1.30000000	0.97720502	151.80000000	111.70000000	165.60000000	186.00000000	151.80000000
11	613.50000000	905.50000000	61.40000000	90.60000000	3.12000000	3.50000000	1.80000000	148.23000000	13.19238796	17.08153301	3.40000000	1.80000000	3.50000000	1.99151731	90.40000000	67.00000000	98.40000000	110.40000000	90.40000000
12	1062.50000000	901.50000000	106.20000000	90.20000000	1.50000000	2.35802517	1.00000000	152.22000000	5.70121925	10.98549090	1.90000000	1.00000000	2.40000000	1.37967138	98.00000000	68.10000000	106.40000000	133.00000000	98.00000000
13	436.50000000	895.50000000	43.70000000	89.60000000	0.64000000	1.00809517	0.80000000	52.97000000	3.07279218	5.69912429	0.90000000	0.90000000	1.00000000	0.89917023	122.30000000	88.10000000	132.40000000	159.70000000	122.30000000
14	1164.50000000	894.50000000	116.50000000	89.50000000	0.87000000	1.29345436	0.90000000	52.77000000	3.72132030	6.94648314	1.20000000	0.90000000	1.30000000	1.04945329	107.00000000	73.70000000	116.00000000	148.30000000	107.10000000
15	777.50000000	886.50000000	77.80000000	88.70000000	0.19000000	0.61351328	0.50000000	161.93000000	1.96568540	3.50729946	0.60000000	0.50000000	0.60000000	0.49184908	133.70000000	97.20000000	144.60000000	172.40000000	133.60000000
16	24.50000000	883.50000000	2.50000000	88.40000000	0.81000000	1.20791283	1.00000000	66.75000000	3.49705623	6.95174822	1.10000000	1.00000000	1.20000000	1.01554125	109.90000000	84.00000000	117.50000000	138.80000000	109.90000000
17	927.50000000	880.50000000	92.80000000	88.10000000	1.92000000	2.30000000	1.70000000	124.40000000	10.97817445	12.63715642	2.00000000	1.90000000	2.30000000	1.56149087	73.20000000	53.80000000	80.10000000	88.70000000	73.20000000
18	873.50000000	877.50000000	87.40000000	87.80000000	4.33000000	3.42722130	2.60000000	151.62000000	11.63259009	19.02434909	2.60000000	2.40000000	3.40000000	2.34664889	79.50000000	58.50000000	86.80000000	96.30000000	79.40000000
19	598.50000000	874.50000000	59.90000000	87.50000000	3.24000000	4.12217789	0.50000000	84.05000000	9.90121925	16.85361058	2.20000000	2.20000000	4.10000000	2.02951470	87.80000000	65.90000000	95.50000000	105.40000000	87.80000000
20	518.50000000	858.50000000	51.90000000	85.90000000	1.12000000	1.51176977	1.10000000	144.25000000	4.95979791	8.25618396	1.50000000	1.10000000	1.50000000	1.19416426	81.60000000	61.80000000	88.90000000	96.40000000	81.60000000
21	435.50000000	836.50000000	43.60000000	83.70000000	0.55000000	1.00000000	0.90000000	121.22000000	3.03847758	5.97316043	0.80000000	0.80000000	1.00000000	0.83301594	128.20000000	95.10000000	139.40000000	157.60000000	128.20000000
22	597.50000000	838.50000000	59.80000000	83.90000000	3.81000000	2.90773163	2.10000000	8.61000000	8.54558437	15.83474567	2.20000000	2.10000000	2.90000000	2.20250827	81.70000000	61.40000000	89.20000000	96.50000000	81.70000000
23	298.00000000	830.00000000	29.80000000	83.00000000	0.44000000	0.80872240	0.80000000	107.66000000	2.61421354	5.05398762	0.80000000	0.80000000	0.80000000	0.74848206	126.30000000	91.50000000	137.60000000	158.60000000	126.20000000
24	200.50000000	831.50000000	20.10000000	83.20000000	0.39000000	0.92830019	0.60000000	105.00000000	2.61421354	4.85684727	0.90000000	0.60000000	0.90000000	0.70467256	86.10000000	64.60000000	93.10000000	106.40000000	86.10000000
25	1089.50000000	825.50000000	109.00000000	82.60000000	0.86000000	1.32096786	1.00000000	21.15000000	3.63847759	7.32643879	1.10000000	1.00000000	1.30000000	1.04336945	109.40000000	75.80000000	118.70000000	149.90000000	109.50000000
26	581.50000000	825.50000000	58.20000000	82.60000000	3.90000000	2.98947601	2.50000000	4.46000000	15.90954525	17.27999308	2.50000000	2.40000000	3.00000000	2.22694141	82.70000000	62.60000000	90.10000000	97.20000000	82.70000000
27	364.50000000	823.50000000	36.50000000	82.40000000	0.42000000	0.84802561	0.70000000	1.93000000	2.75563488	4.87438919	0.80000000	0.70000000	0.80000000	0.72690743	79.10000000	59.30000000	86.20000000	94.90000000	79.20000000
28	954.50000000	814.50000000	95.50000000	81.50000000	0.70000000	1.13825893	0.90000000	75.16000000	3.23847761	6.42527207	1.10000000	0.80000000	1.10000000	0.94069202	118.10000000	83.30000000	128.00000000	158.20000000	118.10000000
29	171.50000000	813.50000000	17.20000000	81.40000000	1.05000000	1.61190948	0.90000000	127.26000000	4.31126980	8.05067418	1.60000000	0.80000000	1.60000000	1.15624458	110.30000000	77.60000000	119.90000000	146.40000000	110.30000000
30	91.50000000	812.50000000	9.20000000	81.20000000	1.06000000	1.30000000	1.20000000	56.61000000	4.34558437	7.85712354	1.30000000	1.10000000	1.30000000	1.16173746	106.40000000	76.70000000	115.70000000	136.60000000	106.40000000
31	411.50000000	802.50000000	41.20000000	80.20000000	1.09000000	1.80000000	1.20000000	111.10000000	5.19411246	9.51926375	1.60000000	1.10000000	1.80000000	1.17806244	121.20000000	88.20000000	132.00000000	151.80000000	121.10000000
32	586.50000000	804.50000000	58.70000000	80.50000000	4.15000000	3.03258915	2.50000000	158.00000000	13.31959578	17.42143151	2.80000000	2.40000000	3.00000000	2.29868313	84.60000000	63.20000000	92.40000000	100.90000000	84.60000000
33	1160.50000000	801.50000000	116.10000000	80.20000000	0.73000000	1.20000000	0.90000000	116.25000000	3.62842705	6.63104765	1.10000000	0.80000000	1.20000000	0.96408758	96.40000000	67.80000000	104.40000000	130.00000000	96.40000000
34	790.50000000	802.50000000	79.10000000	80.20000000	0.41000000	0.81387196	0.80000000	1.38000000	2.63847759	5.07022193	0.70000000	0.70000000	0.80000000	0.71809610	79.60000000	58.30000000	86.90000000	97.90000000	79.60000000
35	879.50000000	790.50000000	88.00000000	79.10000000	0.64000000	1.00665894	0.80000000	27.76000000	3.03847756	5.69436783	0.90000000	0.80000000	1.00000000	0.89917023	103.50000000	72.40000000	112.80000000	137.50000000	103.60000000
36	124.50000000	784.50000000	12.50000000	78.50000000	0.94000000	1.21959639	1.10000000	167.49000000	3.86274165	7.29207076	1.20000000	1.10000000	1.20000000	1.09400419	118.20000000	82.20000000	129.70000000	153.90000000	118.20000000
37	1136.50000000	780.50000000	113.70000000	78.10000000	0.89000000	1.23762264	1.00000000	26.96000000	3.66274165	7.04953172	1.10000000	1.10000000	1.20000000	1.06451078	129.30000000	91.40000000	140.80000000	169.50000000	129.30000000
38	608.50000000	784.50000000	60.90000000	78.50000000	1.93000000	2.01530228	2.00000000	22.82000000	10.07106767	12.61448994	2.10000000	1.80000000	2.00000000	1.56759444	80.50000000	60.00000000	88.10000000	95.70000000	80.60000000
39	1077.50000000	781.50000000	107.80000000	78.20000000	0.47000000	0.86899757	0.80000000	81.49000000	2.86274164	5.24555103	0.80000000	0.80000000	0.90000000	0.77357778	87.10000000	61.20000000	95.20000000	113.20000000	87.10000000
40	326.50000000	774.50000000	32.60000000	77.50000000	0.45000000	0.90000000	0.70000000	95.73000000	2.77989893	5.04620245	0.80000000	0.80000000	0.90000000	0.75693976	92.00000000	67.20000000	99.30000000	120.10000000	92.10000000
41	596.50000000	770.50000000	59.70000000	77.10000000	4.26000000	3.03620586	2.50000000	100.06000000	12.30538226	17.43331643	2.60000000	2.40000000	3.00000000	2.32894836	84.10000000	62.50000000	92.10000000	100.00000000	84.10000000
42	1063.50000000	768.50000000	106.40000000	76.90000000	1.25000000	2.20000000	1.40000000	33.09000000	7.74974737	11.44979626	2.20000000	1.30000000	2.20000000	1.25904060	75.90000000	54.60000000	83.10000000	94.90000000	75.90000000
43	1143.50000000	764.50000000	114.40000000	76.50000000	1.02000000	1.50000000	0.90000000	169.49000000	4.03847759	7.65809966	1.40000000	0.90000000	1.50000000	1.13681051	132.90000000	92.00000000	145.20000000	177.10000000	132.90000000
44	925.50000000	766.50000000	92.60000000	76.70000000	1.02000000	1.70000000	1.00000000	27.76000000	5.07695519	8.62544451	1.70000000	1.00000000	1.70000000	1.13960710	78.40000000	57.00000000	86.10000000	95.60000000	78.50000000
45	60.50000000	764.50000000	6.10000000	76.50000000	0.68000000	1.05763874	0.90000000	41.59000000	3.48700569	6.16007726	1.00000000	0.90000000	1.10000000	0.92705808	77.90000000	58.50000000	84.80000000	92.90000000	77.90000000
46	1116.50000000	756.50000000	111.70000000	75.70000000	0.38000000	0.83115921	0.70000000	149.58000000	2.35563487	4.81910661	0.70000000	0.60000000	0.80000000	0.69098830	76.50000000	54.10000000	83.70000000	98.50000000	76.50000000
47	1243.50000000	735.50000000	124.40000000	73.50000000	7.97000000	9.54565353	1.40000000	48.55000000	21.63919162	39.34221126	8.50000000	1.40000000	9.50000000	3.18554849	78.70000000	55.70000000	86.00000000	101.60000000	78.70000000
48	942.50000000	752.50000000	94.20000000	75.20000000	2.08000000	2.51563950	1.60000000	53.50000000	9.33969686	13.09015722	2.10000000	1.70000000	2.50000000	1.62737158	84.80000000	61.50000000	93.00000000	103.90000000	84.80000000
49	421.50000000	744.50000000	42.20000000	74.50000000	1.54000000	2.26631680	1.10000000	24.99000000	5.59411249	10.89542371	2.00000000	1.20000000	2.30000000	1.40028172	129.10000000	91.40000000	140.70000000	168.80000000	129.10000000
50	1083.50000000	742.50000000	108.40000000	74.20000000	1.07000000	1.36454973	1.10000000	153.71000000	4.17989895	7.76493063	1.30000000	1.10000000	1.40000000	1.16720449	144.20000000	104.50000000	157.00000000	182.30000000	144.20000000
51	803.50000000	748.50000000	80.40000000	74.90000000	0.75000000	1.21033955	1.00000000	142.86000000	3.37989895	6.95971613	1.10000000	0.90000000	1.20000000	0.97720502	86.40000000	65.20000000	93.60000000	105.20000000	86.40000000
52	53.50000000	736.50000000	5.40000000	73.70000000	1.42000000	1.60000000	1.30000000	176.42000000	5.11126976	9.13500947	1.50000000	1.40000000	1.60000000	1.34461896	77.20000000	58.80000000	83.70000000	92.40000000	77.20000000
53	859.50000000	734.50000000	86.00000000	73.50000000	0.42000000	0.79189816	0.70000000	133.60000000	2.49705622	4.69138329	0.70000000	0.70000000	0.80000000	0.73127328	99.00000000	70.30000000	107.80000000	128.60000000	98.90000000
54	356.50000000	727.50000000	35.60000000	72.80000000	1.07000000	1.40000000	1.10000000	170.30000000	4.20416300	7.88228151	1.30000000	1.10000000	1.40000000	1.16447418	176.40000000	138.80000000	190.60000000	202.00000000	176.40000000
55	1067.50000000	735.50000000	106.80000000	73.50000000	2.06000000	2.17004108	1.60000000	49.39000000	6.90121925	11.91172559	1.80000000	1.70000000	2.20000000	1.61756214	76.40000000	55.40000000	84.00000000	92.60000000	76.40000000
56	1031.50000000	716.50000000	103.20000000	71.70000000	1.65000000	2.28913002	1.00000000	11.74000000	5.46274164	10.73390038	2.10000000	1.00000000	2.30000000	1.44942928	135.40000000	94.00000000	148.20000000	178.10000000	135.40000000
57	299.50000000	720.50000000	30.00000000	72.00000000	0.44000000	0.83116159	0.70000000	67.99000000	2.47279218	4.81911441	0.80000000	0.70000000	0.80000000	0.74421717	91.00000000	65.10000000	98.90000000	118.70000000	91.00000000
58	573.50000000	721.50000000	57.40000000	72.20000000	0.49000000	2.60988312	0.70000000	91.21000000	5.40416303	11.28359550	2.00000000	0.70000000	2.60000000	0.78582516	90.30000000	67.80000000	98.20000000	108.50000000	90.30000000
59	481.50000000	711.50000000	48.20000000	71.20000000	1.22000000	1.89581470	0.90000000	111.74000000	4.74558434	9.06416621	1.70000000	0.90000000	1.90000000	1.24633553	143.80000000	103.00000000	157.60000000	180.20000000	143.90000000
60	645.50000000	709.50000000	64.50000000	71.00000000	0.64000000	0.96727915	0.90000000	116.71000000	2.95563487	5.86813450	0.90000000	0.80000000	1.00000000	0.89917023	149.90000000	107.50000000	165.50000000	181.20000000	149.90000000
61	268.50000000	711.50000000	26.90000000	71.20000000	0.57000000	0.94444723	0.70000000	130.13000000	2.89705623	5.19476207	0.90000000	0.80000000	0.90000000	0.85190759	98.60000000	72.80000000	106.90000000	123.80000000	98.60000000
62	1180.50000000	681.50000000	118.10000000	68.20000000	1.38000000	1.90000000	1.20000000	28.72000000	5.27695519	9.86348157	1.80000000	1.10000000	1.90000000	1.32554539	110.30000000	77.20000000	120.30000000	145.60000000	110.30000000
63	193.50000000	699.50000000	19.40000000	70.00000000	0.67000000	1.20361214	0.70000000	85.90000000	3.13137082	6.08548134	1.10000000	0.70000000	1.20000000	0.92361815	154.30000000	112.30000000	169.20000000	188.10000000	154.30000000
64	906.50000000	703.50000000	90.70000000	70.40000000	0.33000000	0.73040056	0.70000000	51.68000000	2.57989894	4.49424337	0.70000000	0.60000000	0.70000000	0.64820448	78.90000000	58.50000000	86.10000000	96.00000000	79.00000000
65	579.50000000	700.50000000	58.00000000	70.00000000	1.33000000	1.99717636	1.10000000	50.12000000	7.85685414	9.93527741	1.90000000	1.20000000	2.00000000	1.30131034	84.60000000	63.20000000	92.20000000	101.50000000	84.60000000
66	1016.50000000	696.50000000	101.70000000	69.70000000	0.54000000	0.96462126	0.80000000	168.89000000	2.75563487	5.55578950	0.80000000	0.80000000	1.00000000	0.82533821	125.30000000	86.50000000	136.50000000	169.40000000	125.30000000
67	1236.50000000	695.50000000	123.70000000	69.50000000	0.77000000	1.10206575	1.00000000	109.34000000	4.02842706	6.60772718	1.10000000	1.00000000	1.10000000	0.99014870	76.20000000	54.30000000	82.60000000	101.10000000	76.20000000
68	809.50000000	681.50000000	81.00000000	68.20000000	1.03000000	1.70000000	0.80000000	7.00000000	4.29705623	8.11058223	1.70000000	0.80000000	1.70000000	1.14517978	150.80000000	108.00000000	164.80000000	191.40000000	150.80000000
69	1207.50000000	682.50000000	120.80000000	68.20000000	0.42000000	0.82844439	0.80000000	22.10000000	2.38994946	5.11629915	0.70000000	0.70000000	0.80000000	0.72690743	114.20000000	79.50000000	123.80000000	155.30000000	114.20000000
70	616.50000000	683.50000000	61.70000000	68.40000000	1.86000000	2.30000000	1.30000000	68.08000000	9.31543279	11.52897275	2.20000000	1.50000000	2.30000000	1.53683420	87.50000000	65.30000000	95.50000000	105.70000000	87.60000000
71	269.50000000	677.50000000	27.00000000	67.80000000	1.86000000	2.10000000	1.30000000	133.65000000	6.24264060	10.82977347	2.10000000	1.30000000	2.10000000	1.53890401	78.10000000	57.70000000	85.40000000	94.70000000	78.20000000
72	303.50000000	676.50000000	30.40000000	67.70000000	1.30000000	1.76351719	1.40000000	111.51000000	7.25685415	9.97131676	1.70000000	1.40000000	1.80000000	1.28655020	76.00000000	56.70000000	83.20000000	90.00000000	76.10000000
73	409.50000000	675.50000000	41.00000000	67.50000000	0.39000000	0.81853762	0.70000000	42.74000000	2.63847759	4.77789675	0.80000000	0.70000000	0.80000000	0.70014086	82.60000000	60.60000000	90.10000000	102.10000000	82.70000000
74	445.50000000	666.50000000	44.60000000	66.70000000	0.49000000	0.94867687	0.80000000	79.47000000	2.97989894	5.50356303	1.00000000	0.70000000	0.90000000	0.78986542	85.20000000	62.00000000	92.70000000	107.40000000	85.20000000
75	1207.50000000	661.50000000	120.80000000	66.20000000	0.57000000	0.98231964	0.80000000	64.17000000	2.89705625	5.61397966	0.80000000	0.80000000	1.00000000	0.85190759	109.90000000	77.00000000	118.80000000	150.40000000	109.90000000
76	949.50000000	649.50000000	95.00000000	65.00000000	0.81000000	1.40000000	0.90000000	156.67000000	3.88700571	7.31128766	1.30000000	0.90000000	1.40000000	1.01240201	136.40000000	98.10000000	148.50000000	174.80000000	136.40000000
77	327.50000000	651.50000000	32.80000000	65.20000000	0.49000000	0.90819721	0.80000000	81.98000000	2.61421351	5.37184366	0.80000000	0.80000000	0.90000000	0.78986542	103.00000000	75.30000000	112.00000000	129.10000000	103.00000000
78	1108.50000000	646.50000000	110.90000000	64.70000000	0.81000000	1.20000000	1.00000000	143.09000000	3.72132031	6.92579120	1.20000000	1.00000000	1.20000000	1.01240201	124.80000000	87.00000000	136.30000000	165.10000000	124.80000000
79	1016.50000000	649.50000000	101.70000000	65.00000000	2.77000000	2.44143734	2.20000000	77.44000000	7.81837653	14.59137096	2.10000000	2.00000000	2.40000000	1.87630151	75.40000000	55.60000000	82.40000000	91.40000000	75.40000000
80	396.50000000	647.50000000	39.70000000	64.80000000	0.98000000	1.62022629	0.90000000	3.90000000	5.61837654	8.08002162	1.50000000	1.00000000	1.60000000	1.11418515	75.50000000	55.80000000	82.70000000	90.90000000	75.60000000
81	103.50000000	634.50000000	10.40000000	63.50000000	2.08000000	2.30000000	1.40000000	45.13000000	6.75979791	11.79647678	2.30000000	1.40000000	2.30000000	1.62737158	132.00000000	95.80000000	143.30000000	168.80000000	132.00000000
82	58.50000000	622.50000000	5.90000000	62.20000000	2.27000000	2.31031170	1.40000000	106.23000000	7.24264059	11.83237025	2.30000000	1.50000000	2.30000000	1.70007464	126.10000000	92.50000000	136.50000000	160.70000000	126.10000000
83	526.50000000	622.50000000	52.70000000	62.20000000	0.84000000	1.22188253	1.00000000	158.66000000	3.41421353	6.99766336	1.10000000	0.90000000	1.20000000	1.03417659	139.00000000	100.20000000	151.70000000	176.20000000	139.10000000
84	630.50000000	622.50000000	63.10000000	62.20000000	3.55000000	3.80000000	1.60000000	137.31000000	12.12964631	17.67617680	4.00000000	1.80000000	3.80000000	2.12453152	87.10000000	65.00000000	95.10000000	104.10000000	87.10000000
85	979.50000000	610.50000000	98.00000000	61.10000000	2.68000000	2.30000000	1.70000000	11.67000000	6.65269113	12.63715642	2.00000000	1.90000000	2.30000000	1.84551234	174.50000000	131.10000000	190.00000000	208.80000000	174.50000000
86	511.50000000	622.50000000	51.20000000	62.20000000	0.27000000	0.69791131	0.60000000	178.73000000	2.17989893	4.08331181	0.60000000	0.60000000	0.70000000	0.58632301	93.20000000	69.80000000	100.80000000	115.60000000	93.20000000
87	1066.50000000	618.50000000	106.70000000	61.90000000	0.41000000	0.83003807	0.70000000	45.00000000	2.38994948	4.81544047	0.70000000	0.70000000	0.80000000	0.71809610	137.40000000	98.50000000	150.10000000	174.40000000	137.40000000
88	939.50000000	613.50000000	94.00000000	61.40000000	0.82000000	1.31694450	0.80000000	25.36000000	3.63847760	6.75009686	1.30000000	0.80000000	1.30000000	1.01867081	130.40000000	94.60000000	141.60000000	166.90000000	130.40000000
89	589.50000000	613.50000000	59.00000000	61.40000000	1.61000000	2.10000000	1.30000000	108.97000000	8.43259007	10.82977347	2.00000000	1.40000000	2.10000000	1.42952771	90.60000000	67.50000000	98.80000000	109.40000000	90.60000000
90	1013.50000000	606.50000000	101.40000000	60.70000000	0.61000000	1.03850012	0.80000000	49.74000000	2.95563488	5.80014397	1.00000000	0.80000000	1.00000000	0.87767302	132.80000000	95.00000000	144.60000000	171.60000000	132.90000000
91	1206.50000000	607.50000000	120.70000000	60.80000000	0.38000000	0.74600902	0.70000000	8.06000000	2.27279217	4.54392113	0.70000000	0.60000000	0.70000000	0.69098830	91.00000000	63.60000000	98.60000000	124.10000000	91.00000000
92	132.50000000	598.50000000	13.20000000	59.90000000	1.42000000	1.82549458	1.10000000	59.58000000	4.82842708	9.33256941	1.80000000	1.10000000	1.80000000	1.34461896	158.80000000	117.30000000	173.50000000	192.10000000	158.80000000
93	346.50000000	603.50000000	34.60000000	60.40000000	0.58000000	0.99130220	0.80000000	52.44000000	3.15563489	5.64359910	1.00000000	0.80000000	1.00000000	0.85563587	113.90000000	87.30000000	123.90000000	132.10000000	113.90000000
94	829.50000000	599.50000000	83.00000000	60.00000000	0.75000000	1.29389048	1.10000000	72.17000000	4.19411246	7.53296765	1.20000000	1.10000000	1.30000000	0.97720502	80.50000000	59.80000000	87.60000000	98.50000000	80.50000000
95	1200.50000000	589.50000000	120.10000000	59.00000000	1.16000000	1.86398487	1.00000000	67.85000000	4.62842706	9.20337206	1.60000000	1.00000000	1.90000000	1.21530156	107.90000000	75.70000000	116.80000000	146.90000000	107.90000000
96	965.50000000	590.50000000	96.60000000	59.10000000	0.15000000	1.06266747	0.40000000	121.41000000	1.76568542	4.83409486	0.50000000	0.50000000	1.10000000	0.43701937	147.40000000	112.80000000	159.80000000	174.30000000	147.40000000
97	718.50000000	574.50000000	71.90000000	57.50000000	0.85000000	2.18669567	0.90000000	130.14000000	7.45685413	10.12318651	2.20000000	1.00000000	2.20000000	1.04031419	80.70000000	60.90000000	87.90000000	95.90000000	80.70000000
98	694.50000000	566.50000000	69.50000000	56.70000000	0.49000000	0.93569012	0.70000000	83.69000000	2.61421351	5.16537983	0.80000000	0.70000000	0.90000000	0.78986542	148.90000000	108.40000000	163.50000000	180.50000000	149.00000000
99	1268.00000000	559.50000000	126.80000000	56.00000000	0.87000000	1.36207085	0.90000000	30.05000000	3.74558437	7.18083169	1.30000000	0.80000000	1.40000000	1.05248202	108.40000000	74.40000000	117.60000000	149.70000000	108.40000000
100	654.50000000	560.50000000	65.50000000	56.10000000	0.37000000	1.39210672	0.90000000	158.81000000	2.75563489	7.28408755	1.00000000	0.60000000	1.40000000	0.68171287	107.50000000	79.60000000	116.90000000	132.80000000	107.60000000
101	1036.50000000	550.50000000	103.70000000	55.10000000	1.20000000	1.73923016	1.00000000	98.90000000	4.48700572	8.76295447	1.60000000	1.00000000	1.70000000	1.23349960	138.40000000	99.00000000	151.10000000	177.10000000	138.50000000
102	652.50000000	552.50000000	65.20000000	55.20000000	0.48000000	0.88295965	0.80000000	143.33000000	2.69705623	5.29038598	0.80000000	0.80000000	0.90000000	0.78176402	97.90000000	71.90000000	106.60000000	120.80000000	97.90000000
103	108.50000000	545.50000000	10.90000000	54.60000000	2.44000000	2.50000000	1.50000000	55.81000000	7.80832601	12.76349943	2.20000000	1.80000000	2.50000000	1.76258460	79.60000000	58.80000000	87.10000000	95.40000000	79.60000000
104	392.50000000	544.50000000	39.20000000	54.50000000	0.40000000	0.93011074	0.70000000	95.61000000	2.43847759	5.14668798	0.70000000	0.60000000	0.90000000	0.70917531	85.10000000	64.70000000	91.50000000	105.90000000	85.10000000
105	1056.50000000	538.50000000	105.70000000	53.90000000	0.37000000	1.02484303	0.80000000	124.83000000	2.53137082	5.75469238	0.90000000	0.60000000	1.00000000	0.68636625	147.20000000	104.20000000	161.30000000	187.90000000	147.30000000
106	60.50000000	528.50000000	6.10000000	52.90000000	1.63000000	2.51562481	0.90000000	29.35000000	5.51126976	11.33961691	2.10000000	1.00000000	2.50000000	1.44061808	144.40000000	106.10000000	156.70000000	181.70000000	144.40000000
107	740.50000000	536.50000000	74.00000000	53.70000000	0.70000000	1.50742235	1.00000000	2.19000000	5.61837654	7.95815770	1.40000000	1.00000000	1.50000000	0.94069202	81.50000000	60.90000000	88.90000000	97.50000000	81.50000000
108	1019.50000000	526.50000000	102.00000000	52.70000000	1.64000000	2.30970974	1.50000000	95.10000000	7.60832601	12.10410478	1.80000000	1.50000000	2.30000000	1.44503040	83.30000000	61.60000000	90.80000000	102.10000000	83.40000000
109	1027.50000000	526.50000000	102.80000000	52.70000000	2.43000000	2.43454304	1.60000000	90.60000000	9.79827548	12.81083645	2.40000000	1.60000000	2.40000000	1.75715847	82.80000000	60.70000000	90.50000000	101.40000000	82.80000000
110	1097.50000000	520.50000000	109.80000000	52.10000000	0.80000000	1.30000000	0.90000000	178.29000000	4.00416300	6.96874271	1.10000000	1.10000000	1.30000000	1.00609415	121.40000000	85.00000000	132.50000000	159.90000000	121.50000000
111	294.50000000	518.50000000	29.50000000	51.90000000	1.04000000	1.36525078	1.10000000	1.41000000	4.00416298	7.76724517	1.20000000	1.10000000	1.40000000	1.14795598	143.70000000	105.70000000	156.60000000	177.30000000	143.80000000
112	996.50000000	520.50000000	99.70000000	52.10000000	2.53000000	2.62618675	1.70000000	115.76000000	9.77401142	13.74730123	2.20000000	1.90000000	2.60000000	1.79479694	77.70000000	57.50000000	84.90000000	93.70000000	77.70000000
113	684.50000000	512.50000000	68.50000000	51.20000000	2.36000000	2.40000000	1.80000000	118.68000000	9.18822496	13.26209530	2.10000000	1.80000000	2.40000000	1.73344897	83.70000000	62.80000000	91.50000000	98.30000000	83.70000000
114	1028.50000000	510.50000000	102.90000000	51.10000000	4.95000000	3.13430347	2.40000000	125.94000000	14.21248904	17.46313225	3.00000000	2.40000000	3.10000000	2.50921692	81.50000000	59.90000000	89.10000000	98.90000000	81.50000000
115	401.50000000	504.50000000	40.20000000	50.50000000	0.40000000	0.82904682	0.70000000	49.44000000	2.41421353	4.81219997	0.80000000	0.60000000	0.80000000	0.71364965	125.70000000	93.30000000	136.30000000	155.80000000	125.70000000
116	608.50000000	502.50000000	60.90000000	50.20000000	0.53000000	0.93777876	0.90000000	81.37000000	2.97989893	5.77416221	0.90000000	0.80000000	0.90000000	0.82147243	94.10000000	71.30000000	102.10000000	112.70000000	94.10000000
117	833.50000000	497.50000000	83.40000000	49.80000000	0.30000000	0.80000000	0.70000000	75.08000000	2.15563487	4.71762642	0.60000000	0.60000000	0.80000000	0.61286676	135.30000000	97.50000000	147.40000000	171.60000000	135.30000000
118	710.50000000	489.50000000	71.00000000	49.00000000	3.81000000	3.10214195	2.40000000	90.60000000	17.98233747	17.35593396	2.40000000	2.40000000	3.10000000	2.20250827	80.90000000	60.10000000	88.50000000	96.10000000	80.90000000
119	1069.50000000	489.50000000	107.00000000	49.00000000	2.00000000	2.06216640	2.00000000	123.72000000	9.94974738	12.76241936	2.10000000	2.00000000	2.10000000	1.59377316	83.90000000	59.80000000	92.20000000	103.90000000	83.80000000
120	640.50000000	478.50000000	64.00000000	47.90000000	0.41000000	0.83537626	0.70000000	6.02000000	2.55563489	4.83290611	0.70000000	0.70000000	0.80000000	0.71809610	86.00000000	63.50000000	94.10000000	103.50000000	86.00000000
121	760.50000000	465.50000000	76.00000000	46.60000000	5.23000000	4.44998970	2.00000000	158.59000000	13.50538226	21.00098575	3.70000000	2.20000000	4.40000000	2.58051212	88.00000000	65.80000000	96.10000000	105.10000000	88.10000000
122	957.50000000	460.50000000	95.80000000	46.10000000	0.70000000	1.20981560	0.80000000	89.32000000	3.43847759	6.37982551	1.20000000	0.80000000	1.20000000	0.94069202	141.40000000	101.60000000	154.50000000	178.90000000	141.50000000
123	368.50000000	459.50000000	36.90000000	46.00000000	0.55000000	0.99776173	0.80000000	93.32000000	2.81421353	5.66493407	0.80000000	0.80000000	1.00000000	0.83682839	135.70000000	97.50000000	148.80000000	168.30000000	135.70000000
124	582.50000000	457.50000000	58.20000000	45.80000000	1.92000000	2.20000000	2.20000000	133.45000000	10.88111819	13.82300768	2.20000000	2.00000000	2.20000000	1.56149087	85.50000000	65.30000000	93.10000000	99.10000000	85.50000000
125	698.50000000	456.50000000	69.90000000	45.70000000	1.53000000	2.23405590	1.60000000	98.38000000	12.46518017	12.12753794	2.20000000	1.60000000	2.20000000	1.39572795	81.90000000	61.40000000	89.40000000	97.00000000	81.90000000
126	1231.50000000	451.50000000	123.20000000	45.20000000	0.87000000	1.30000000	1.00000000	121.27000000	3.69705623	7.25642889	1.30000000	0.90000000	1.30000000	1.05248202	111.60000000	78.60000000	120.90000000	150.40000000	111.70000000
127	1052.50000000	441.50000000	105.20000000	44.20000000	0.71000000	1.20000000	0.90000000	11.32000000	3.46274166	6.63104765	1.10000000	0.90000000	1.20000000	0.95078919	149.00000000	106.20000000	163.50000000	186.90000000	149.00000000
128	771.50000000	441.50000000	77.20000000	44.20000000	0.40000000	0.78758268	0.70000000	135.00000000	2.33137082	4.67742962	0.70000000	0.70000000	0.80000000	0.71364965	109.40000000	81.30000000	117.80000000	140.00000000	109.40000000
129	138.50000000	414.50000000	13.90000000	41.50000000	2.17000000	4.03695068	0.80000000	45.41000000	7.68111820	16.95121300	3.10000000	0.80000000	4.00000000	1.66029022	106.00000000	81.40000000	114.90000000	124.30000000	106.00000000
130	1266.50000000	419.50000000	126.70000000	42.00000000	0.98000000	1.56886330	0.90000000	20.49000000	4.12132030	7.89914854	1.50000000	0.90000000	1.60000000	1.11418515	123.60000000	87.70000000	133.70000000	165.90000000	123.60000000
131	333.50000000	418.50000000	33.40000000	41.90000000	0.61000000	1.10000000	0.80000000	36.31000000	2.95563489	6.00628745	1.10000000	0.70000000	1.10000000	0.87767302	139.50000000	100.00000000	153.20000000	172.60000000	139.50000000
132	1242.50000000	411.50000000	124.20000000	41.20000000	1.72000000	2.45341244	1.00000000	158.07000000	6.07695518	11.33520474	2.40000000	1.00000000	2.50000000	1.47985540	119.10000000	85.20000000	129.00000000	156.30000000	119.00000000
133	593.50000000	417.50000000	59.40000000	41.80000000	2.58000000	3.61558723	1.80000000	165.22000000	10.57401145	17.49508174	2.40000000	2.10000000	3.60000000	1.81244532	79.90000000	60.20000000	87.40000000	93.40000000	80.00000000
134	517.50000000	413.50000000	51.80000000	41.40000000	1.09000000	1.59338932	0.90000000	83.04000000	4.15563489	7.98540486	1.50000000	0.90000000	1.60000000	1.17535735	155.40000000	115.80000000	169.50000000	186.50000000	155.40000000
135	713.50000000	415.50000000	71.40000000	41.60000000	0.34000000	0.80000000	0.70000000	78.58000000	2.18994948	4.71762642	0.70000000	0.60000000	0.80000000	0.65309666	109.90000000	78.90000000	119.90000000	140.00000000	109.90000000
136	732.50000000	409.50000000	73.20000000	41.00000000	0.36000000	0.76644392	0.70000000	177.25000000	2.33137083	4.60933423	0.70000000	0.70000000	0.80000000	0.67702750	100.10000000	74.60000000	108.70000000	122.70000000	100.10000000
137	482.50000000	408.50000000	48.20000000	40.90000000	1.68000000	1.70000000	1.30000000	51.72000000	5.75979789	9.46671261	1.70000000	1.40000000	1.70000000	1.46254656	83.50000000	61.70000000	91.30000000	100.60000000	83.50000000
138	117.50000000	395.50000000	11.80000000	39.60000000	1.01000000	1.40000000	1.00000000	45.20000000	3.92132031	7.59227379	1.20000000	1.10000000	1.40000000	1.13119660	181.60000000	145.70000000	195.60000000	203.60000000	181.60000000
139	1223.50000000	395.50000000	122.40000000	39.60000000	1.42000000	2.00000000	1.00000000	68.55000000	5.08700570	9.68844822	2.00000000	1.00000000	2.00000000	1.34224959	136.50000000	96.90000000	148.40000000	179.00000000	136.50000000
140	927.50000000	367.50000000	92.80000000	36.80000000	11.48000000	19.05298004	1.10000000	67.61000000	33.23330412	76.68410299	14.60000000	1.10000000	19.10000000	3.82319107	128.20000000	92.40000000	139.10000000	166.30000000	128.20000000
141	734.50000000	389.50000000	73.50000000	39.00000000	4.64000000	3.47385750	2.40000000	170.42000000	13.96812394	18.60778366	2.90000000	2.60000000	3.50000000	2.43060311	86.30000000	64.00000000	94.30000000	104.20000000	86.30000000
142	438.50000000	387.50000000	43.90000000	38.80000000	0.33000000	0.78645606	0.60000000	41.39000000	2.21421353	4.37539667	0.60000000	0.60000000	0.80000000	0.64820448	101.20000000	75.00000000	110.20000000	124.30000000	101.30000000
143	669.50000000	383.50000000	67.00000000	38.40000000	0.42000000	0.79212041	0.70000000	108.84000000	2.47279217	4.69210239	0.80000000	0.70000000	0.80000000	0.72690743	131.80000000	96.60000000	143.50000000	164.40000000	131.90000000
144	216.50000000	384.50000000	21.70000000	38.50000000	0.41000000	0.81515932	0.70000000	46.72000000	2.41421353	4.76689020	0.70000000	0.70000000	0.80000000	0.72251520	88.90000000	64.20000000	97.40000000	110.30000000	89.00000000
145	381.50000000	383.50000000	38.10000000	38.40000000	0.30000000	0.84046412	0.60000000	100.17000000	2.29705625	4.55693417	0.70000000	0.60000000	0.80000000	0.61803872	129.60000000	96.80000000	140.50000000	159.80000000	129.60000000
146	502.50000000	380.50000000	50.20000000	38.10000000	1.69000000	1.90000000	1.40000000	47.16000000	5.81837654	10.42684148	1.90000000	1.30000000	1.90000000	1.46472135	95.80000000	72.50000000	104.20000000	113.90000000	95.80000000
147	576.50000000	371.50000000	57.70000000	37.10000000	0.37000000	0.81423883	0.70000000	55.66000000	2.27279216	4.76389299	0.70000000	0.60000000	0.80000000	0.68171287	125.20000000	91.90000000	136.10000000	156.40000000	125.20000000
148	598.50000000	367.50000000	59.90000000	36.80000000	2.16000000	2.50000000	1.40000000	164.26000000	9.63259009	12.49712260	2.60000000	1.40000000	2.50000000	1.65645139	86.30000000	65.30000000	94.00000000	102.30000000	86.40000000
149	605.50000000	362.50000000	60.60000000	36.20000000	3.01000000	2.80000000	2.10000000	152.46000000	11.15391040	15.47244451	2.40000000	2.20000000	2.80000000	1.95766469	84.60000000	64.00000000	92.10000000	100.20000000	84.60000000
150	1263.50000000	361.50000000	126.40000000	36.10000000	0.84000000	1.37467699	0.80000000	73.20000000	3.69705623	6.95175234	1.40000000	0.90000000	1.40000000	1.03417659	121.80000000	85.10000000	132.30000000	164.50000000	121.80000000
151	432.50000000	358.50000000	43.20000000	35.90000000	1.82000000	1.90000000	1.60000000	42.72000000	6.46690465	11.01577953	1.90000000	1.60000000	1.90000000	1.52017426	96.80000000	71.40000000	105.30000000	119.10000000	96.80000000
152	831.50000000	355.50000000	83.20000000	35.60000000	0.46000000	0.92411518	0.80000000	174.38000000	2.92132028	5.42348722	0.80000000	0.80000000	0.90000000	0.76113336	123.70000000	88.30000000	135.10000000	158.30000000	123.70000000
153	1102.50000000	345.50000000	110.20000000	34.60000000	0.70000000	1.22655306	0.80000000	158.38000000	3.35563489	6.43731608	1.10000000	0.80000000	1.20000000	0.94069202	119.30000000	83.00000000	129.80000000	160.60000000	119.30000000
154	1166.50000000	337.50000000	116.70000000	33.80000000	0.79000000	1.24347782	0.90000000	69.06000000	3.35563489	6.77723232	1.10000000	0.90000000	1.20000000	0.99974649	148.40000000	106.30000000	162.50000000	186.20000000	148.40000000
155	726.50000000	337.50000000	72.70000000	33.80000000	2.40000000	2.30864468	2.10000000	3.41000000	13.80660154	13.85792213	2.40000000	2.10000000	2.30000000	1.74625563	83.30000000	62.60000000	90.90000000	98.90000000	83.40000000
156	833.50000000	334.50000000	83.40000000	33.50000000	1.64000000	2.15506535	1.30000000	159.33000000	8.58822494	11.02125456	2.10000000	1.40000000	2.20000000	1.44503040	81.10000000	60.60000000	88.50000000	96.90000000	81.10000000
157	68.50000000	326.50000000	6.90000000	32.60000000	0.47000000	1.00000000	0.80000000	56.22000000	2.75563489	5.67233358	0.90000000	0.70000000	1.00000000	0.76945201	111.30000000	82.80000000	120.50000000	137.80000000	111.20000000
158	119.50000000	309.50000000	12.00000000	31.00000000	0.79000000	1.21741629	1.00000000	22.01000000	3.46274166	6.98297155	1.10000000	0.80000000	1.20000000	1.00292534	130.00000000	91.60000000	142.70000000	165.60000000	130.00000000
159	1103.50000000	311.50000000	110.40000000	31.20000000	0.61000000	0.97893953	0.90000000	51.10000000	2.89705621	5.90546767	0.80000000	0.80000000	1.00000000	0.88129230	103.40000000	72.00000000	112.80000000	137.40000000	103.40000000
160	539.50000000	301.50000000	54.00000000	30.20000000	0.40000000	0.80000000	0.70000000	60.80000000	2.47279218	4.71762642	0.80000000	0.70000000	0.80000000	0.70917531	115.60000000	84.00000000	126.40000000	143.50000000	115.70000000
161	762.50000000	289.50000000	76.20000000	29.00000000	0.76000000	1.15607510	1.00000000	114.78000000	3.29705621	6.78238606	1.00000000	0.90000000	1.20000000	0.98369815	141.50000000	101.60000000	155.10000000	176.20000000	141.50000000
162	633.50000000	287.50000000	63.40000000	28.80000000	0.96000000	1.90000000	1.00000000	42.62000000	6.70121925	9.33134210	1.90000000	1.00000000	1.90000000	1.10269840	80.20000000	60.20000000	87.80000000	94.50000000	80.30000000
163	918.50000000	274.50000000	91.90000000	27.50000000	1.13000000	1.60000000	0.90000000	100.01000000	4.17989893	8.00868922	1.50000000	1.00000000	1.60000000	1.19948351	143.10000000	102.60000000	156.60000000	180.00000000	143.10000000
164	515.50000000	269.50000000	51.60000000	27.00000000	0.77000000	1.30000000	0.90000000	2.67000000	3.77989895	6.96874271	1.30000000	0.90000000	1.30000000	0.99014870	142.80000000	102.50000000	156.90000000	176.60000000	142.90000000
165	902.50000000	266.50000000	90.20000000	26.70000000	0.23000000	1.09583578	0.40000000	0.00000000	2.53137083	4.95717428	1.00000000	0.40000000	1.10000000	0.54115164	102.70000000	74.90000000	112.80000000	124.30000000	102.80000000
166	1015.50000000	261.50000000	101.60000000	26.20000000	0.45000000	0.85111208	0.90000000	177.97000000	2.94558434	5.50235286	0.80000000	0.70000000	0.90000000	0.75693976	88.80000000	63.20000000	96.40000000	116.90000000	88.80000000
167	803.50000000	252.50000000	80.40000000	25.20000000	0.37000000	0.74383192	0.70000000	121.38000000	2.35563488	4.53697691	0.70000000	0.60000000	0.70000000	0.68171287	135.20000000	96.80000000	147.30000000	173.40000000	135.20000000
168	966.50000000	247.50000000	96.70000000	24.80000000	0.98000000	1.40000000	0.90000000	157.09000000	3.86274166	7.31128766	1.30000000	1.00000000	1.40000000	1.11703839	142.50000000	102.50000000	155.70000000	179.30000000	142.50000000
169	255.50000000	238.50000000	25.60000000	23.90000000	0.55000000	1.02604704	0.70000000	70.02000000	2.81421351	5.47101797	1.00000000	0.70000000	1.00000000	0.83682839	141.30000000	101.70000000	155.00000000	174.80000000	141.30000000
170	400.50000000	232.50000000	40.10000000	23.20000000	0.83000000	1.20000000	1.00000000	130.24000000	4.25269114	6.92579120	1.20000000	1.00000000	1.20000000	1.02490128	91.80000000	68.00000000	99.50000000	114.30000000	91.80000000
171	1253.50000000	228.50000000	125.40000000	22.90000000	1.08000000	1.53553104	1.00000000	43.69000000	4.36984843	8.05469246	1.50000000	1.00000000	1.50000000	1.16992842	119.70000000	83.60000000	130.40000000	159.50000000	119.70000000
172	322.50000000	229.50000000	32.20000000	23.00000000	0.37000000	0.80000000	0.70000000	32.06000000	2.41421353	4.71762642	0.70000000	0.70000000	0.80000000	0.68636625	109.10000000	80.00000000	118.80000000	135.00000000	109.10000000
173	949.50000000	229.50000000	95.00000000	23.00000000	0.56000000	1.00000000	0.90000000	106.24000000	3.03847759	5.97316043	0.80000000	0.80000000	1.00000000	0.84062355	123.50000000	87.00000000	134.90000000	160.30000000	123.50000000
174	854.50000000	222.50000000	85.50000000	22.20000000	0.42000000	0.80000000	0.80000000	140.69000000	2.55563489	5.02654825	0.80000000	0.70000000	0.80000000	0.72690743	84.00000000	61.40000000	91.70000000	103.60000000	84.00000000
175	98.50000000	213.50000000	9.90000000	21.40000000	0.61000000	1.05022602	0.90000000	33.43000000	2.95563488	6.13590768	0.90000000	0.80000000	1.10000000	0.87767302	104.80000000	75.10000000	114.00000000	135.50000000	104.80000000
176	246.50000000	206.50000000	24.70000000	20.70000000	0.45000000	1.05532160	0.60000000	43.70000000	2.77989894	5.29918616	0.80000000	0.60000000	1.10000000	0.75693976	80.40000000	58.70000000	88.10000000	97.40000000	80.40000000
177	982.50000000	203.50000000	98.20000000	20.40000000	0.58000000	1.00000000	0.90000000	94.85000000	3.26274166	5.97316043	0.90000000	0.80000000	1.00000000	0.85934797	111.20000000	77.00000000	121.40000000	148.80000000	111.20000000
178	146.50000000	197.50000000	14.70000000	19.80000000	1.24000000	1.79835892	1.00000000	167.51000000	4.82842709	8.97112164	1.80000000	1.00000000	1.80000000	1.25650986	142.40000000	101.40000000	156.00000000	179.90000000	142.40000000
179	470.50000000	196.50000000	47.10000000	19.70000000	1.04000000	1.44137068	1.00000000	53.64000000	4.08700570	7.73259176	1.30000000	1.00000000	1.40000000	1.14795598	145.40000000	105.70000000	158.70000000	181.50000000	145.40000000
180	852.50000000	196.50000000	85.20000000	19.70000000	1.38000000	1.88747845	1.00000000	115.45000000	4.91126981	9.28681016	1.70000000	1.10000000	1.90000000	1.32554539	132.50000000	93.40000000	144.80000000	172.20000000	132.50000000
181	1125.50000000	199.50000000	112.60000000	20.00000000	0.49000000	0.90000000	0.70000000	167.82000000	3.00416300	5.04620245	0.80000000	0.80000000	0.90000000	0.78582516	72.70000000	52.90000000	79.20000000	91.40000000	72.70000000
182	250.50000000	189.50000000	25.10000000	18.90000000	1.53000000	2.10000000	1.00000000	66.60000000	5.85269116	10.04798821	2.10000000	1.20000000	2.10000000	1.39344548	139.10000000	101.30000000	151.40000000	175.60000000	139.20000000
183	13.50000000	189.50000000	1.40000000	18.90000000	1.33000000	2.30751858	0.90000000	19.76000000	5.71126978	10.56795678	2.10000000	0.90000000	2.30000000	1.30131034	95.00000000	71.50000000	102.90000000	116.40000000	95.10000000
184	352.50000000	189.50000000	35.20000000	18.90000000	0.39000000	0.83451052	0.70000000	17.31000000	2.49705623	4.83007188	0.80000000	0.60000000	0.80000000	0.70467256	120.60000000	88.10000000	131.10000000	151.50000000	120.60000000
185	732.50000000	171.50000000	73.20000000	17.20000000	1.43000000	2.00000000	1.50000000	25.03000000	8.90121925	11.05174608	1.80000000	1.50000000	2.00000000	1.34698417	90.70000000	67.40000000	99.20000000	108.90000000	90.80000000
186	111.50000000	165.50000000	11.20000000	16.60000000	0.64000000	1.20000000	0.80000000	66.08000000	3.13137082	6.34617584	1.10000000	0.70000000	1.20000000	0.90270333	139.50000000	102.00000000	152.50000000	171.50000000	139.60000000
187	491.50000000	166.50000000	49.20000000	16.70000000	2.23000000	2.38386784	2.00000000	164.19000000	7.98406193	13.79873917	2.00000000	1.90000000	2.40000000	1.68313932	80.40000000	59.80000000	88.10000000	94.70000000	80.40000000
188	258.50000000	154.50000000	25.90000000	15.50000000	1.68000000	2.27615299	0.90000000	68.54000000	6.04264059	10.45224969	2.20000000	1.10000000	2.30000000	1.46254656	118.00000000	86.60000000	128.60000000	146.20000000	118.00000000
189	1091.50000000	155.50000000	109.20000000	15.60000000	0.66000000	1.26914845	0.80000000	40.50000000	3.17989893	6.58423819	1.10000000	0.80000000	1.30000000	0.91669957	119.80000000	85.00000000	130.30000000	157.30000000	119.80000000
190	512.50000000	151.50000000	51.20000000	15.20000000	0.76000000	1.37750444	0.80000000	12.69000000	3.61421353	6.96166367	1.30000000	0.70000000	1.40000000	0.98369815	147.90000000	107.70000000	161.70000000	182.20000000	147.90000000
191	1096.50000000	128.50000000	109.70000000	12.90000000	0.79000000	1.29945211	0.80000000	158.05000000	3.68700573	6.68927753	1.10000000	1.00000000	1.30000000	0.99974649	131.50000000	92.10000000	143.80000000	172.10000000	131.60000000
192	1112.50000000	129.50000000	111.20000000	13.00000000	0.24000000	1.37876949	0.30000000	171.65000000	2.84852811	5.83425219	1.30000000	0.30000000	1.40000000	0.55279064	105.20000000	71.50000000	115.10000000	142.90000000	105.20000000
193	728.50000000	123.50000000	72.90000000	12.40000000	2.85000000	2.40000000	2.10000000	157.54000000	9.20832601	14.15287927	2.20000000	2.00000000	2.40000000	1.90492328	83.90000000	61.90000000	91.70000000	101.50000000	84.00000000
194	1119.50000000	117.50000000	112.00000000	11.80000000	0.64000000	1.02491550	0.90000000	156.73000000	3.17989894	6.05366873	0.90000000	0.90000000	1.00000000	0.90270333	125.20000000	87.00000000	136.80000000	165.90000000	125.30000000
195	722.50000000	113.50000000	72.20000000	11.40000000	4.77000000	3.01281433	2.60000000	177.45000000	10.48111819	17.65703052	2.60000000	2.40000000	3.00000000	2.46312534	84.00000000	61.70000000	92.00000000	101.50000000	84.00000000
196	681.50000000	105.50000000	68.20000000	10.60000000	1.35000000	2.20000000	1.10000000	153.10000000	7.18406197	10.65729304	2.30000000	1.20000000	2.20000000	1.30862798	80.60000000	59.80000000	88.20000000	96.70000000	80.70000000
197	1112.50000000	104.50000000	111.20000000	10.50000000	0.35000000	0.90000000	0.60000000	101.21000000	2.36568542	4.75963188	0.80000000	0.50000000	0.90000000	0.66755812	126.90000000	89.00000000	138.60000000	166.00000000	126.90000000
198	731.50000000	89.50000000	73.20000000	9.00000000	2.58000000	2.43430386	2.10000000	37.06000000	9.30121925	14.26430034	2.10000000	2.00000000	2.40000000	1.81068822	86.70000000	63.00000000	95.00000000	105.70000000	86.70000000
199	742.50000000	89.50000000	74.20000000	9.00000000	3.12000000	2.28705273	2.00000000	16.25000000	8.80832603	13.48327333	2.10000000	1.90000000	2.30000000	1.99311499	83.90000000	61.30000000	92.00000000	101.90000000	83.90000000
200	282.50000000	81.50000000	28.20000000	8.20000000	1.00000000	1.37284260	1.00000000	12.30000000	3.87279218	7.50058841	1.30000000	0.90000000	1.40000000	1.12555468	156.80000000	112.30000000	172.70000000	191.60000000	156.80000000
201	1054.50000000	82.50000000	105.50000000	8.20000000	0.68000000	1.20000000	0.80000000	141.86000000	3.43847760	6.34617584	1.10000000	0.80000000	1.20000000	0.92705808	122.20000000	85.00000000	133.80000000	160.20000000	122.20000000
202	693.50000000	77.50000000	69.40000000	7.80000000	2.09000000	2.03744812	1.80000000	98.90000000	8.71543280	12.06724103	1.90000000	1.70000000	2.00000000	1.62932638	79.20000000	58.20000000	86.80000000	95.60000000	79.30000000
203	521.50000000	77.50000000	52.20000000	7.80000000	0.89000000	1.50000000	1.00000000	14.64000000	4.32132031	7.93271979	1.40000000	1.00000000	1.50000000	1.06151637	81.20000000	61.10000000	88.70000000	95.50000000	81.20000000
204	211.50000000	73.50000000	21.20000000	7.40000000	0.52000000	0.96331320	0.80000000	80.34000000	2.75563488	5.55149780	0.90000000	0.70000000	1.00000000	0.80976439	139.70000000	100.60000000	153.20000000	172.20000000	139.70000000
205	709.50000000	60.50000000	71.00000000	6.10000000	0.15000000	1.24287882	0.30000000	1.65000000	2.44852812	5.31137546	1.10000000	0.20000000	1.20000000	0.43701937	111.90000000	82.90000000	122.60000000	132.80000000	111.90000000
206	62.50000000	42.50000000	6.20000000	4.20000000	1.17000000	1.90864658	0.90000000	20.88000000	4.43847759	9.11048705	1.70000000	0.90000000	1.90000000	1.21791792	153.80000000	113.20000000	167.90000000	187.60000000	153.80000000
207	1109.50000000	41.50000000	111.00000000	4.20000000	0.39000000	0.94824514	0.70000000	155.05000000	2.83847760	5.20752168	0.90000000	0.60000000	0.90000000	0.70014086	81.60000000	58.80000000	88.90000000	103.60000000	81.60000000
208	300.50000000	36.50000000	30.10000000	3.70000000	1.08000000	2.13345890	0.90000000	153.59000000	5.48700571	9.92805656	1.80000000	1.10000000	2.10000000	1.16992842	90.70000000	67.50000000	98.60000000	110.90000000	90.70000000
209	369.50000000	33.50000000	37.00000000	3.40000000	2.26000000	2.03599854	1.80000000	82.48000000	10.57817440	12.06255080	2.00000000	1.80000000	2.00000000	1.69444834	75.10000000	56.00000000	82.10000000	90.00000000	75.20000000
210	306.50000000	26.50000000	30.70000000	2.70000000	1.55000000	2.20000000	1.10000000	150.31000000	6.60832598	10.65729304	2.20000000	1.10000000	2.20000000	1.40482073	92.80000000	69.50000000	100.50000000	114.10000000	92.80000000
211	721.50000000	24.50000000	72.20000000	2.50000000	2.49000000	2.80000000	2.20000000	122.00000000	17.31787127	15.76456301	2.40000000	2.30000000	2.80000000	1.77876369	80.50000000	60.30000000	87.50000000	97.30000000	80.50000000
212	1167.50000000	23.50000000	116.80000000	2.40000000	0.38000000	0.96449261	0.70000000	166.14000000	2.55563490	5.26221938	0.80000000	0.60000000	1.00000000	0.69098830	97.60000000	71.70000000	104.20000000	130.80000000	97.50000000
213	331.50000000	18.50000000	33.10000000	1.90000000	0.72000000	2.00000000	0.70000000	51.25000000	5.47695520	8.98147895	2.10000000	0.70000000	2.00000000	0.95746147	80.30000000	60.10000000	87.30000000	97.70000000	80.40000000
214	1254.50000000	13.50000000	125.50000000	1.40000000	0.90000000	1.20710859	1.00000000	54.92000000	3.57989895	6.94910835	1.20000000	0.90000000	1.20000000	1.07047447	138.00000000	101.50000000	149.70000000	173.20000000	138.00000000
215	400.50000000	13.00000000	40.10000000	1.30000000	2.05000000	2.21524487	1.70000000	128.70000000	8.44680362	12.35341714	2.30000000	1.60000000	2.20000000	1.61362166	82.00000000	61.20000000	89.30000000	99.90000000	82.10000000
216	423.50000000	10.50000000	42.40000000	1.10000000	0.47000000	1.00000000	0.90000000	80.70000000	2.86274165	5.97316043	0.80000000	0.70000000	1.00000000	0.77357778	88.10000000	66.00000000	95.20000000	109.00000000	88.00000000

#3
liczenie
obiektów (w)	udział punktów	pole obrazu(mm²)
	24	100.00	12288.0000
nr.	x(pix.):	y(pix.):	x(mm):	y(mm):	powierzchnia:(mm²)	długość:(mm)	szerokość:(mm)	kąt:(°)	obwód:(mm)	obwód C.:(mm)	średnica Fereta H(mm)	średnica Fereta V(mm)	średn. Martina:(mm)	średn. sitowa:(mm)	średnia jaskrawość	R	G	B	Y
1	973.50000000	882.50000000	97.40000000	88.20000000	0.93000000	1.60000000	0.90000000	18.13000000	4.25269119	8.00868922	1.40000000	0.80000000	1.60000000	1.08524033	144.90000000	109.50000000	158.60000000	167.40000000	144.90000000
2	145.50000000	827.50000000	14.60000000	82.80000000	0.54000000	1.02161045	0.70000000	28.26000000	2.81421351	5.45588880	1.00000000	0.70000000	1.00000000	0.82918596	145.30000000	112.70000000	157.50000000	168.50000000	145.40000000
3	1222.50000000	766.50000000	122.20000000	76.70000000	1.04000000	1.54634829	0.90000000	6.63000000	4.09705623	7.82014895	1.50000000	0.90000000	1.50000000	1.15072548	128.10000000	93.30000000	140.60000000	155.30000000	128.10000000
4	328.50000000	720.50000000	32.90000000	72.00000000	1.37000000	2.09356976	0.90000000	52.31000000	4.88700571	9.78221067	2.00000000	0.90000000	2.10000000	1.31832165	186.50000000	155.70000000	197.40000000	211.00000000	186.50000000
5	943.50000000	699.50000000	94.40000000	70.00000000	0.60000000	1.14570560	0.70000000	81.35000000	3.15563489	5.88330034	1.20000000	0.70000000	1.10000000	0.87038930	139.20000000	111.50000000	149.60000000	158.20000000	139.20000000
6	718.50000000	675.50000000	71.90000000	67.50000000	0.93000000	1.44528933	0.90000000	31.95000000	3.86274165	7.46785913	1.30000000	0.90000000	1.40000000	1.08816946	147.00000000	113.20000000	159.50000000	171.10000000	147.00000000
7	205.50000000	621.50000000	20.60000000	62.20000000	1.48000000	2.40271397	0.90000000	7.64000000	5.99411246	10.92011850	2.30000000	1.00000000	2.40000000	1.37273250	157.80000000	123.10000000	170.10000000	185.60000000	157.80000000
8	851.50000000	616.50000000	85.20000000	61.70000000	0.53000000	1.06965113	0.80000000	125.56000000	3.06274165	5.90426672	0.90000000	0.80000000	1.10000000	0.82147243	112.80000000	91.80000000	122.30000000	119.30000000	112.80000000
9	1214.50000000	588.50000000	121.50000000	58.90000000	0.97000000	2.00748959	0.70000000	51.60000000	5.16984843	9.00942835	2.00000000	0.80000000	2.00000000	1.10845666	104.50000000	78.60000000	113.80000000	124.40000000	104.50000000
10	408.50000000	549.50000000	40.90000000	55.00000000	0.53000000	1.00000000	0.80000000	165.63000000	2.73137082	5.67233358	0.90000000	0.70000000	1.00000000	0.82147243	142.70000000	112.00000000	154.20000000	163.80000000	142.70000000
11	849.50000000	475.50000000	85.00000000	47.60000000	0.72000000	1.37964725	0.80000000	95.20000000	3.43847760	6.96917719	1.40000000	0.70000000	1.40000000	0.95413116	121.80000000	94.50000000	131.60000000	143.00000000	121.80000000
12	822.50000000	453.50000000	82.20000000	45.40000000	0.23000000	0.60000000	0.50000000	82.17000000	1.78994948	3.46289560	0.60000000	0.50000000	0.60000000	0.53523723	86.70000000	70.70000000	94.20000000	90.40000000	86.80000000
13	1156.50000000	432.50000000	115.70000000	43.20000000	1.61000000	1.97741051	1.10000000	45.75000000	5.16984841	9.86546569	1.90000000	1.10000000	2.00000000	1.42952771	181.90000000	149.70000000	192.90000000	209.80000000	181.90000000
14	581.50000000	406.50000000	58.20000000	40.70000000	0.40000000	0.90000000	0.80000000	85.44000000	2.69705623	5.34532850	0.80000000	0.70000000	0.90000000	0.71364965	131.70000000	103.00000000	142.50000000	151.70000000	131.80000000
15	815.50000000	361.50000000	81.60000000	36.10000000	0.83000000	1.61371403	0.70000000	44.37000000	3.86274165	7.55502477	1.60000000	0.70000000	1.60000000	1.02800235	100.00000000	80.80000000	107.40000000	112.40000000	100.00000000
16	69.50000000	288.50000000	7.00000000	28.90000000	1.65000000	2.00006180	1.10000000	129.16000000	5.85269115	9.94547728	1.90000000	1.20000000	2.00000000	1.44723151	116.00000000	90.50000000	123.80000000	142.90000000	116.00000000
17	78.50000000	239.50000000	7.90000000	24.00000000	0.77000000	1.31209555	0.80000000	67.88000000	3.52132028	6.73322408	1.20000000	0.80000000	1.30000000	0.98692870	138.60000000	107.00000000	150.10000000	162.30000000	138.60000000
18	181.50000000	151.50000000	18.20000000	15.20000000	1.62000000	2.56290607	1.00000000	87.23000000	5.43847758	11.73846989	2.10000000	0.90000000	2.60000000	1.43397415	142.80000000	107.60000000	154.10000000	177.00000000	142.80000000
19	418.50000000	148.50000000	41.90000000	14.90000000	1.20000000	2.18525085	0.80000000	57.46000000	4.94558436	9.89049058	2.00000000	0.90000000	2.20000000	1.23607745	126.00000000	94.70000000	135.80000000	158.10000000	126.00000000
20	181.50000000	124.50000000	18.20000000	12.50000000	1.47000000	2.00000000	1.00000000	13.76000000	5.46274165	9.68844822	2.00000000	1.10000000	2.00000000	1.36808703	112.00000000	83.70000000	120.60000000	141.40000000	112.00000000
21	1062.50000000	111.50000000	106.20000000	11.20000000	0.40000000	0.82381325	0.80000000	23.00000000	2.55563488	5.10163405	0.70000000	0.70000000	0.80000000	0.70917531	77.60000000	58.30000000	84.00000000	95.60000000	77.60000000
22	230.50000000	106.50000000	23.10000000	10.70000000	0.76000000	1.29448299	0.80000000	33.48000000	3.37989895	6.67202503	1.20000000	0.80000000	1.30000000	0.98369815	124.50000000	90.70000000	134.80000000	159.60000000	124.40000000
23	332.50000000	31.50000000	33.20000000	3.20000000	0.37000000	0.84125710	0.60000000	55.66000000	2.33137083	4.55961685	0.70000000	0.70000000	0.80000000	0.68636625	86.20000000	68.80000000	91.70000000	104.10000000	86.20000000
24	509.50000000	24.50000000	51.00000000	2.50000000	1.34000000	1.70000000	1.10000000	66.10000000	4.37989895	8.89773238	1.50000000	1.10000000	1.70000000	1.30619332	121.80000000	93.30000000	130.70000000	150.80000000	121.80000000

#4
liczenie
obiektów (w)	udział punktów	pole obrazu(mm²)
	16	100.00	12288.0000
nr.	x(pix.):	y(pix.):	x(mm):	y(mm):	powierzchnia:(mm²)	długość:(mm)	szerokość:(mm)	kąt:(°)	obwód:(mm)	obwód C.:(mm)	średnica Fereta H(mm)	średnica Fereta V(mm)	średn. Martina:(mm)	średn. sitowa:(mm)	średnia jaskrawość	R	G	B	Y
1	788.50000000	812.50000000	78.90000000	81.20000000	0.92000000	1.60560799	0.80000000	19.54000000	3.97989895	7.77086018	1.50000000	0.80000000	1.60000000	1.08230328	130.00000000	92.60000000	140.80000000	172.70000000	130.00000000
2	235.50000000	767.50000000	23.60000000	76.80000000	0.44000000	0.86635551	0.70000000	31.71000000	2.53137082	4.93473710	0.80000000	0.70000000	0.90000000	0.74848206	122.40000000	91.40000000	132.80000000	150.10000000	122.40000000
3	754.50000000	727.50000000	75.50000000	72.80000000	0.51000000	0.92148066	0.70000000	85.83000000	2.67279217	5.11781973	0.90000000	0.70000000	0.90000000	0.80186406	126.20000000	92.90000000	136.70000000	159.50000000	126.20000000
4	519.50000000	502.50000000	52.00000000	50.20000000	0.62000000	1.11244202	0.70000000	85.32000000	3.09705622	5.76791052	1.10000000	0.70000000	1.10000000	0.88848664	172.20000000	139.70000000	184.10000000	196.20000000	172.20000000
5	1213.50000000	411.50000000	121.40000000	41.20000000	0.86000000	1.34988241	0.90000000	71.82000000	3.63847759	7.13904500	1.20000000	0.90000000	1.30000000	1.04336945	103.00000000	70.40000000	111.20000000	146.20000000	103.00000000
6	574.50000000	409.50000000	57.50000000	41.00000000	0.35000000	0.80000000	0.70000000	178.49000000	2.18994948	4.71762642	0.70000000	0.60000000	0.80000000	0.66277269	79.70000000	64.90000000	85.80000000	87.30000000	79.70000000
7	658.50000000	398.50000000	65.90000000	39.90000000	1.60000000	2.60000000	0.90000000	100.27000000	6.05269113	11.65427367	2.50000000	1.00000000	2.60000000	1.42506739	152.60000000	117.20000000	164.40000000	184.50000000	152.60000000
8	1083.50000000	323.50000000	108.40000000	32.40000000	2.17000000	2.08192997	1.60000000	92.99000000	7.81837652	11.61672041	1.90000000	1.80000000	2.10000000	1.66029022	122.30000000	87.50000000	132.50000000	161.00000000	122.30000000
9	1255.50000000	217.50000000	125.60000000	21.80000000	0.85000000	1.30000000	1.00000000	65.76000000	3.72132030	7.25642889	1.30000000	0.90000000	1.30000000	1.03724993	67.00000000	49.90000000	72.10000000	85.40000000	67.00000000
10	643.50000000	206.50000000	64.40000000	20.70000000	0.73000000	1.23317785	0.80000000	169.21000000	3.33137083	6.46010943	1.10000000	0.80000000	1.20000000	0.96408758	159.20000000	122.60000000	172.80000000	185.80000000	159.30000000
11	1182.50000000	180.50000000	118.20000000	18.10000000	1.45000000	2.05579472	1.00000000	96.66000000	6.15979791	9.88876675	2.10000000	1.20000000	2.10000000	1.35874845	93.60000000	67.10000000	101.30000000	123.20000000	93.60000000
12	938.50000000	174.50000000	93.90000000	17.40000000	1.39000000	1.81681461	0.90000000	133.25000000	5.40416299	8.77989840	1.80000000	1.20000000	1.80000000	1.32794457	111.10000000	82.40000000	120.40000000	138.70000000	111.10000000
13	577.50000000	167.50000000	57.80000000	16.80000000	0.30000000	0.74500637	0.60000000	175.51000000	2.15563488	4.23774942	0.60000000	0.60000000	0.70000000	0.61286676	95.60000000	76.00000000	103.70000000	105.30000000	95.60000000
14	922.50000000	146.50000000	92.20000000	14.70000000	1.05000000	1.61215210	0.90000000	121.29000000	4.12132028	8.05152997	1.60000000	0.90000000	1.60000000	1.15348833	162.80000000	126.00000000	176.00000000	191.20000000	162.80000000
15	1040.50000000	121.50000000	104.10000000	12.20000000	2.56000000	3.93536797	1.00000000	111.96000000	8.24264059	16.90954231	3.50000000	1.00000000	3.90000000	1.80540667	139.80000000	101.10000000	152.40000000	176.30000000	139.80000000
16	917.50000000	73.50000000	91.80000000	7.40000000	0.39000000	0.80000000	0.70000000	43.56000000	2.41421353	4.71762642	0.80000000	0.60000000	0.80000000	0.70467256	86.90000000	63.70000000	94.30000000	109.70000000	86.90000000

#5
liczenie
obiektów (w)	udział punktów	pole obrazu(mm²)
	21	100.00	12288.0000
nr.	x(pix.):	y(pix.):	x(mm):	y(mm):	powierzchnia:(mm²)	długość:(mm)	szerokość:(mm)	kąt:(°)	obwód:(mm)	obwód C.:(mm)	średnica Fereta H(mm)	średnica Fereta V(mm)	średn. Martina:(mm)	średn. sitowa:(mm)	średnia jaskrawość	R	G	B	Y
1	950.50000000	937.50000000	95.10000000	93.80000000	1.09000000	1.97556114	0.80000000	62.64000000	4.80416304	9.11532598	1.90000000	0.90000000	2.00000000	1.17535735	119.60000000	90.80000000	129.60000000	144.20000000	119.60000000
2	1116.50000000	910.50000000	111.70000000	91.10000000	0.67000000	1.20229177	0.80000000	12.62000000	3.21421354	6.35402809	1.20000000	0.70000000	1.20000000	0.92361815	140.70000000	104.50000000	153.30000000	171.10000000	140.70000000
3	760.50000000	845.50000000	76.00000000	84.60000000	0.54000000	1.00000000	0.80000000	69.63000000	2.73137082	5.67233358	0.90000000	0.70000000	1.00000000	0.82918596	110.90000000	87.20000000	118.90000000	131.40000000	110.90000000
4	445.50000000	830.50000000	44.60000000	83.10000000	0.34000000	0.80000000	0.80000000	106.00000000	2.49705625	5.02654825	0.70000000	0.60000000	0.80000000	0.65795246	106.10000000	83.30000000	113.10000000	130.40000000	106.10000000
5	1068.50000000	789.50000000	106.90000000	79.00000000	0.91000000	1.73555279	0.80000000	70.47000000	4.03847759	8.23917904	1.60000000	0.80000000	1.70000000	1.07344389	146.10000000	110.60000000	158.80000000	173.70000000	146.10000000
6	10.50000000	789.50000000	1.10000000	79.00000000	0.71000000	1.02409496	1.00000000	11.30000000	3.21421354	6.35910714	1.00000000	0.90000000	1.00000000	0.95078919	132.10000000	103.90000000	142.10000000	154.70000000	132.10000000
7	898.50000000	753.50000000	89.90000000	75.40000000	0.99000000	1.84112568	0.80000000	39.28000000	4.46274165	8.62293588	1.60000000	0.80000000	1.80000000	1.12272310	130.20000000	98.50000000	140.60000000	159.60000000	130.20000000
8	223.50000000	698.50000000	22.40000000	69.90000000	1.20000000	1.70000000	1.00000000	18.09000000	4.54558433	8.62544451	1.70000000	1.00000000	1.70000000	1.23607745	116.00000000	89.40000000	124.40000000	142.50000000	116.00000000
9	880.50000000	665.50000000	88.10000000	66.50000000	0.71000000	1.03531370	1.00000000	45.00000000	3.13137083	6.39460780	0.90000000	0.90000000	1.00000000	0.95078919	168.70000000	137.00000000	180.20000000	192.40000000	168.70000000
10	869.50000000	651.50000000	87.00000000	65.20000000	0.10000000	0.52420616	0.40000000	121.72000000	1.28284271	2.91660429	0.40000000	0.30000000	0.50000000	0.35682482	150.30000000	121.30000000	160.80000000	170.90000000	150.20000000
11	620.50000000	620.50000000	62.10000000	62.10000000	1.18000000	1.58623056	1.00000000	46.31000000	4.20416297	8.22958861	1.50000000	1.00000000	1.60000000	1.22313387	161.30000000	126.00000000	173.90000000	188.80000000	161.30000000
12	324.50000000	571.50000000	32.50000000	57.20000000	0.55000000	0.94561691	0.80000000	66.93000000	2.95563489	5.49356178	0.90000000	0.80000000	0.90000000	0.83301594	140.70000000	108.20000000	152.10000000	167.40000000	140.70000000
13	1233.50000000	563.50000000	123.40000000	56.40000000	1.32000000	1.97359295	1.00000000	169.01000000	4.89705625	9.59390109	1.90000000	0.90000000	2.00000000	1.29640896	149.40000000	112.50000000	162.00000000	181.30000000	149.40000000
14	320.50000000	560.50000000	32.10000000	56.10000000	0.51000000	0.95729313	0.70000000	64.64000000	2.78994948	5.23795981	0.90000000	0.70000000	1.00000000	0.80186406	142.80000000	109.00000000	154.60000000	171.40000000	142.90000000
15	833.50000000	551.50000000	83.40000000	55.20000000	0.34000000	0.80000000	0.60000000	139.45000000	2.57989894	4.42069843	0.80000000	0.60000000	0.80000000	0.65795246	79.70000000	65.00000000	84.70000000	91.80000000	79.60000000
16	78.50000000	542.50000000	7.90000000	54.20000000	3.42000000	5.56058197	1.00000000	79.40000000	12.03259009	23.18714483	5.30000000	1.10000000	5.60000000	2.08521295	106.70000000	84.00000000	113.80000000	129.90000000	106.70000000
17	30.50000000	541.50000000	3.10000000	54.20000000	1.07000000	1.50000000	1.00000000	29.90000000	3.97989894	7.93271979	1.40000000	1.00000000	1.50000000	1.16720449	162.30000000	130.70000000	174.10000000	184.30000000	162.30000000
18	307.50000000	290.50000000	30.80000000	29.10000000	0.81000000	1.39583960	0.80000000	75.82000000	3.53137081	7.02601269	1.30000000	0.70000000	1.40000000	1.01554125	161.90000000	130.30000000	173.70000000	183.90000000	161.90000000
19	511.50000000	235.50000000	51.20000000	23.60000000	0.92000000	1.40722446	0.90000000	18.30000000	4.00416299	7.33620632	1.30000000	0.90000000	1.40000000	1.07935823	113.10000000	87.90000000	121.30000000	137.00000000	113.10000000
20	130.50000000	24.50000000	13.10000000	2.50000000	0.87000000	1.52942944	0.80000000	55.61000000	3.94558439	7.49863941	1.50000000	0.80000000	1.50000000	1.05248202	128.00000000	100.30000000	136.60000000	156.90000000	128.00000000
21	1242.50000000	12.00000000	124.20000000	1.20000000	0.81000000	1.41501455	0.80000000	125.58000000	3.57989893	7.09344959	1.30000000	0.80000000	1.40000000	1.01554125	121.20000000	89.70000000	130.90000000	154.30000000	121.30000000

#6
liczenie
obiektów (w)	udział punktów	pole obrazu(mm²)
	10	100.00	12288.0000
nr.	x(pix.):	y(pix.):	x(mm):	y(mm):	powierzchnia:(mm²)	długość:(mm)	szerokość:(mm)	kąt:(°)	obwód:(mm)	obwód C.:(mm)	średnica Fereta H(mm)	średnica Fereta V(mm)	średn. Martina:(mm)	średn. sitowa:(mm)	średnia jaskrawość	R	G	B	Y
1	823.50000000	859.50000000	82.40000000	86.00000000	0.36000000	0.73794918	0.70000000	0.00000000	2.21421351	4.51823721	0.60000000	0.60000000	0.70000000	0.67702750	79.70000000	60.40000000	86.00000000	98.50000000	79.80000000
2	797.50000000	830.50000000	79.80000000	83.10000000	0.83000000	1.69920406	0.70000000	58.50000000	4.25269108	7.86786686	1.50000000	0.80000000	1.70000000	1.02490128	147.40000000	107.00000000	161.60000000	180.80000000	147.50000000
3	317.50000000	679.50000000	31.80000000	68.00000000	1.15000000	1.85883293	0.80000000	51.85000000	4.48700573	8.68756346	1.70000000	0.80000000	1.90000000	1.20741844	140.70000000	101.90000000	153.70000000	175.70000000	140.70000000
4	208.50000000	674.50000000	20.90000000	67.50000000	1.31000000	2.16490002	0.80000000	72.44000000	5.06274165	9.81491639	2.00000000	1.00000000	2.20000000	1.29148899	149.00000000	107.60000000	162.60000000	188.00000000	149.00000000
5	211.50000000	580.50000000	21.20000000	58.10000000	0.73000000	1.31193848	0.70000000	45.58000000	3.46274167	6.46773754	1.30000000	0.70000000	1.30000000	0.96408758	157.60000000	115.40000000	173.00000000	188.90000000	157.60000000
6	527.50000000	529.50000000	52.80000000	53.00000000	1.97000000	2.34063015	1.20000000	23.16000000	6.33553381	11.41374210	2.30000000	1.30000000	2.30000000	1.58174451	161.60000000	119.20000000	176.20000000	198.20000000	161.70000000
7	863.50000000	406.50000000	86.40000000	40.70000000	2.65000000	4.04918976	0.90000000	50.90000000	8.42253956	17.16680344	3.60000000	0.90000000	4.00000000	1.83686820	171.00000000	127.40000000	186.20000000	207.50000000	171.00000000
8	637.50000000	322.50000000	63.80000000	32.20000000	0.84000000	1.30000000	0.90000000	52.55000000	3.52132031	6.96874271	1.20000000	0.80000000	1.30000000	1.03109409	147.00000000	108.60000000	160.70000000	177.40000000	147.00000000
9	1102.50000000	279.50000000	110.20000000	28.00000000	0.32000000	0.76862283	0.70000000	128.59000000	2.15563487	4.61633338	0.60000000	0.60000000	0.80000000	0.63330124	71.90000000	53.80000000	78.70000000	84.60000000	71.90000000
10	226.50000000	161.50000000	22.70000000	16.20000000	1.57000000	2.20000000	1.10000000	15.70000000	5.87695518	10.65729304	2.20000000	1.20000000	2.20000000	1.41385504	135.70000000	96.90000000	147.90000000	174.40000000	135.70000000

#7
liczenie
obiektów (w)	udział punktów	pole obrazu(mm²)
	18	100.00	12288.0000
nr.	x(pix.):	y(pix.):	x(mm):	y(mm):	powierzchnia:(mm²)	długość:(mm)	szerokość:(mm)	kąt:(°)	obwód:(mm)	obwód C.:(mm)	średnica Fereta H(mm)	średnica Fereta V(mm)	średn. Martina:(mm)	średn. sitowa:(mm)	średnia jaskrawość	R	G	B	Y
1	1246.50000000	900.50000000	124.70000000	90.10000000	0.43000000	0.81132717	0.70000000	30.80000000	2.47279217	4.75441724	0.80000000	0.70000000	0.80000000	0.73561322	88.90000000	64.90000000	96.10000000	114.60000000	88.90000000
2	912.50000000	888.50000000	91.20000000	88.90000000	0.69000000	1.16738033	0.80000000	133.24000000	3.15563488	6.23470678	1.10000000	0.80000000	1.20000000	0.93389993	154.10000000	121.30000000	166.00000000	178.90000000	154.10000000
3	683.50000000	825.50000000	68.40000000	82.60000000	1.35000000	1.96975517	1.00000000	20.31000000	5.36984842	9.58017478	1.90000000	1.10000000	2.00000000	1.30862798	134.40000000	101.70000000	145.60000000	163.00000000	134.50000000
4	1202.50000000	762.50000000	120.20000000	76.20000000	1.85000000	1.70000000	1.50000000	36.74000000	5.06274166	10.06291637	1.50000000	1.50000000	1.70000000	1.53476160	148.00000000	114.10000000	159.10000000	179.90000000	148.00000000
5	1145.50000000	698.50000000	114.60000000	69.90000000	0.63000000	1.12283268	0.80000000	44.68000000	3.01421351	6.08340253	0.90000000	0.90000000	1.10000000	0.89562320	150.40000000	115.20000000	163.10000000	177.50000000	150.40000000
6	1067.50000000	664.50000000	106.80000000	66.50000000	2.69000000	3.79862061	1.10000000	41.65000000	9.57401143	16.58114656	3.60000000	1.30000000	3.80000000	1.85067944	147.40000000	108.60000000	160.30000000	182.30000000	147.40000000
7	998.50000000	670.50000000	99.90000000	67.00000000	0.97000000	1.61675644	0.90000000	123.90000000	4.09705625	8.06777482	1.50000000	0.90000000	1.60000000	1.11132460	143.40000000	109.10000000	155.40000000	171.90000000	143.50000000
8	52.50000000	604.50000000	5.20000000	60.50000000	0.42000000	0.94637814	0.80000000	65.11000000	2.49705623	5.49604912	0.70000000	0.70000000	0.90000000	0.73127328	86.80000000	69.80000000	93.20000000	98.50000000	86.80000000
9	587.50000000	559.50000000	58.80000000	56.00000000	1.50000000	3.05728874	0.80000000	49.95000000	6.60832601	13.17992756	2.70000000	0.80000000	3.10000000	1.38197660	125.10000000	94.60000000	135.50000000	151.60000000	125.10000000
10	911.50000000	564.50000000	91.20000000	56.50000000	0.44000000	0.90000000	0.70000000	45.00000000	2.44852812	5.04620245	0.70000000	0.70000000	0.90000000	0.74848206	146.40000000	109.20000000	159.70000000	175.40000000	146.40000000
11	944.50000000	534.50000000	94.50000000	53.50000000	1.29000000	2.30412979	0.90000000	145.76000000	5.41837655	10.55544761	1.90000000	0.90000000	2.30000000	1.27910626	155.20000000	117.50000000	168.60000000	185.50000000	155.20000000
12	143.50000000	519.50000000	14.40000000	52.00000000	1.25000000	2.11120663	0.90000000	178.90000000	5.00416299	9.84665702	1.90000000	1.00000000	2.10000000	1.25904060	126.50000000	93.90000000	137.50000000	155.50000000	126.50000000
13	655.50000000	520.50000000	65.50000000	52.10000000	0.33000000	0.88435831	0.70000000	39.22000000	2.21421353	4.99427126	0.60000000	0.60000000	0.90000000	0.64820448	82.90000000	66.20000000	89.40000000	93.40000000	82.90000000
14	107.50000000	467.50000000	10.80000000	46.80000000	1.09000000	1.65520535	0.90000000	20.03000000	4.54558437	8.20369803	1.50000000	1.10000000	1.70000000	1.17806244	137.50000000	102.60000000	149.00000000	169.30000000	137.50000000
15	20.50000000	398.50000000	2.10000000	39.90000000	0.82000000	1.14573059	0.90000000	178.50000000	3.35563487	6.45005566	1.10000000	0.90000000	1.10000000	1.01867081	174.90000000	144.50000000	185.90000000	197.70000000	174.90000000
16	634.50000000	394.50000000	63.50000000	39.50000000	1.45000000	2.44209652	0.90000000	63.06000000	6.13553385	11.06622309	2.50000000	1.00000000	2.40000000	1.35640375	101.90000000	77.80000000	110.10000000	122.90000000	101.90000000
17	887.50000000	115.50000000	88.80000000	11.60000000	0.75000000	1.17777605	1.00000000	56.74000000	3.29705623	6.85308785	1.10000000	0.90000000	1.20000000	0.97720502	169.90000000	137.80000000	181.20000000	196.10000000	169.90000000
18	135.50000000	16.50000000	13.60000000	1.70000000	0.67000000	1.16305656	0.80000000	78.65000000	3.21421353	6.21997361	1.10000000	0.70000000	1.20000000	0.92361815	156.30000000	118.90000000	170.10000000	183.40000000	156.30000000

#8
liczenie
obiektów (w)	udział punktów	pole obrazu(mm²)
	18	100.00	12288.0000
nr.	x(pix.):	y(pix.):	x(mm):	y(mm):	powierzchnia:(mm²)	długość:(mm)	szerokość:(mm)	kąt:(°)	obwód:(mm)	obwód C.:(mm)	średnica Fereta H(mm)	średnica Fereta V(mm)	średn. Martina:(mm)	średn. sitowa:(mm)	średnia jaskrawość	R	G	B	Y
1	115.50000000	865.50000000	11.60000000	86.60000000	3.30000000	3.19513035	1.40000000	165.06000000	8.10121922	14.99228216	3.00000000	1.50000000	3.20000000	2.04824908	121.70000000	81.70000000	132.70000000	170.10000000	121.70000000
2	364.50000000	806.50000000	36.50000000	80.70000000	2.31000000	2.50425110	1.30000000	166.25000000	6.26274166	12.25273341	2.30000000	1.30000000	2.50000000	1.71498786	132.20000000	88.30000000	145.50000000	178.50000000	132.20000000
3	544.50000000	750.50000000	54.50000000	75.00000000	1.59000000	2.03769722	1.00000000	135.70000000	5.33553382	9.82371115	2.00000000	1.00000000	2.00000000	1.42059307	134.30000000	91.80000000	147.80000000	176.60000000	134.40000000
4	837.50000000	672.50000000	83.80000000	67.20000000	4.16000000	4.70000000	1.10000000	4.44000000	11.65685413	20.02327651	4.70000000	1.60000000	4.70000000	2.30145096	119.80000000	81.00000000	130.90000000	164.40000000	119.80000000
5	740.50000000	616.50000000	74.00000000	61.70000000	0.77000000	1.24098997	1.00000000	24.16000000	3.29705623	7.06064630	1.10000000	0.80000000	1.20000000	0.99014870	148.00000000	103.20000000	163.80000000	184.20000000	148.00000000
6	1143.50000000	534.50000000	114.40000000	53.50000000	1.23000000	1.79960861	1.00000000	24.44000000	4.82842706	8.97553267	1.70000000	1.00000000	1.80000000	1.25143303	87.30000000	57.70000000	94.10000000	130.50000000	87.40000000
7	426.50000000	495.50000000	42.70000000	49.60000000	0.67000000	1.11199665	0.90000000	167.57000000	3.17989892	6.33842978	0.90000000	0.90000000	1.10000000	0.92361815	95.50000000	63.80000000	104.30000000	133.30000000	95.50000000
8	559.50000000	480.50000000	56.00000000	48.10000000	0.51000000	0.93927088	0.70000000	74.60000000	2.75563488	5.17738763	0.90000000	0.70000000	0.90000000	0.80186406	90.30000000	62.30000000	97.20000000	128.30000000	90.30000000
9	494.50000000	410.50000000	49.50000000	41.10000000	1.10000000	1.40000000	1.10000000	179.34000000	4.42842706	7.88228151	1.30000000	1.20000000	1.40000000	1.18345405	95.80000000	63.90000000	104.40000000	135.10000000	95.80000000
10	293.50000000	335.50000000	29.40000000	33.60000000	1.50000000	2.20000000	0.90000000	77.01000000	5.56984842	10.17203439	2.10000000	1.00000000	2.20000000	1.37967138	93.90000000	62.60000000	102.10000000	133.50000000	93.90000000
11	860.50000000	317.50000000	86.10000000	31.80000000	1.11000000	1.58642502	0.90000000	64.92000000	4.32132031	7.96089096	1.60000000	1.00000000	1.60000000	1.18614067	92.10000000	59.70000000	100.20000000	135.10000000	92.10000000
12	587.50000000	188.50000000	58.80000000	18.90000000	8.81000000	10.85190887	1.30000000	101.93000000	21.02670257	44.34841211	9.20000000	1.40000000	10.90000000	3.34826436	110.10000000	72.70000000	120.40000000	155.60000000	110.20000000
13	719.50000000	179.50000000	72.00000000	17.90000000	0.95000000	1.41848450	1.00000000	95.83000000	3.75563487	7.65487326	1.30000000	0.90000000	1.40000000	1.09690992	100.30000000	65.00000000	109.60000000	144.90000000	100.30000000
14	300.50000000	148.50000000	30.10000000	14.90000000	2.10000000	2.53129730	1.30000000	157.80000000	6.16984844	12.34922774	2.50000000	1.20000000	2.50000000	1.63322896	105.80000000	70.90000000	115.40000000	147.90000000	105.80000000
15	1081.50000000	132.50000000	108.20000000	13.20000000	0.52000000	0.96331320	0.80000000	9.66000000	2.75563488	5.55149780	0.90000000	0.70000000	1.00000000	0.80976439	74.00000000	51.30000000	79.70000000	103.60000000	74.00000000
16	583.50000000	99.50000000	58.40000000	10.00000000	0.84000000	1.18070202	1.00000000	30.98000000	3.68700570	6.86264283	1.10000000	1.00000000	1.20000000	1.03109409	60.20000000	43.70000000	64.80000000	79.40000000	60.10000000
17	454.50000000	48.50000000	45.50000000	4.90000000	2.72000000	3.22730026	1.20000000	81.91000000	7.61837655	14.64797528	3.10000000	1.20000000	3.20000000	1.85925936	110.40000000	73.20000000	120.10000000	158.20000000	110.40000000
18	730.50000000	16.00000000	73.00000000	1.60000000	1.07000000	1.64417019	0.90000000	15.73000000	4.15563488	8.16463831	1.50000000	0.90000000	1.60000000	1.16447418	111.70000000	74.40000000	121.40000000	160.10000000	111.80000000

#9
liczenie
obiektów (w)	udział punktów	pole obrazu(mm²)
	13	100.00	12288.0000
nr.	x(pix.):	y(pix.):	x(mm):	y(mm):	powierzchnia:(mm²)	długość:(mm)	szerokość:(mm)	kąt:(°)	obwód:(mm)	obwód C.:(mm)	średnica Fereta H(mm)	średnica Fereta V(mm)	średn. Martina:(mm)	średn. sitowa:(mm)	średnia jaskrawość	R	G	B	Y
1	163.50000000	933.00000000	16.40000000	93.30000000	8.78000000	3.70000000	3.30000000	9.27000000	11.78822495	22.00910420	3.50000000	3.30000000	3.70000000	3.34350762	205.10000000	173.90000000	217.20000000	224.70000000	205.10000000
2	328.50000000	919.50000000	32.90000000	92.00000000	0.45000000	1.00493898	0.80000000	9.69000000	2.61421355	5.68867363	0.90000000	0.60000000	1.00000000	0.75693976	120.00000000	85.70000000	129.60000000	160.90000000	120.00000000
3	1165.50000000	764.50000000	116.60000000	76.50000000	1.44000000	2.00777035	0.90000000	12.08000000	5.28700570	9.46961096	1.90000000	1.10000000	2.00000000	1.35170217	91.00000000	63.20000000	98.60000000	124.10000000	90.90000000
4	293.50000000	668.50000000	29.40000000	66.90000000	0.65000000	1.29737711	0.70000000	54.64000000	3.29705623	6.41607031	1.20000000	0.70000000	1.30000000	0.90972837	137.50000000	97.00000000	150.80000000	175.70000000	137.50000000
5	112.50000000	604.50000000	11.20000000	60.50000000	0.76000000	1.20000000	0.90000000	19.07000000	3.23847759	6.63104765	1.10000000	0.80000000	1.20000000	0.98045696	136.70000000	96.10000000	151.30000000	167.70000000	136.70000000
6	455.50000000	585.50000000	45.60000000	58.60000000	2.19000000	3.17569466	0.90000000	176.80000000	7.20416300	13.82331805	2.90000000	1.00000000	3.20000000	1.66794137	150.30000000	105.80000000	164.90000000	191.70000000	150.30000000
7	798.50000000	500.50000000	79.90000000	50.10000000	1.25000000	1.90006886	0.90000000	113.56000000	4.60416298	9.07951851	1.80000000	0.90000000	1.90000000	1.25904060	135.60000000	95.40000000	148.40000000	174.90000000	135.50000000
8	986.50000000	407.50000000	98.70000000	40.80000000	0.83000000	1.31687803	0.90000000	102.77000000	3.57989895	7.02623460	1.20000000	0.90000000	1.30000000	1.02800235	133.10000000	95.90000000	146.20000000	163.80000000	133.20000000
9	105.50000000	364.50000000	10.60000000	36.50000000	0.80000000	1.18349476	1.00000000	28.62000000	3.35563488	6.87176759	1.10000000	0.90000000	1.20000000	1.00609415	118.10000000	81.90000000	130.00000000	151.90000000	118.10000000
10	448.50000000	256.50000000	44.90000000	25.70000000	1.98000000	2.68045025	1.00000000	112.53000000	6.70121922	12.17338896	2.60000000	1.00000000	2.70000000	1.58576420	138.50000000	98.80000000	151.20000000	177.70000000	138.50000000
11	1006.50000000	237.50000000	100.70000000	23.80000000	0.56000000	1.20000000	0.80000000	21.64000000	3.01421353	6.34617584	1.10000000	0.70000000	1.20000000	0.84440165	142.00000000	101.20000000	156.20000000	175.90000000	142.00000000
12	978.50000000	188.50000000	97.90000000	18.90000000	1.61000000	2.35708218	1.00000000	51.60000000	6.14558436	10.98204149	2.30000000	1.10000000	2.40000000	1.43175266	104.90000000	72.50000000	114.40000000	140.90000000	104.90000000
13	788.50000000	125.50000000	78.90000000	12.60000000	1.71000000	2.82556152	0.90000000	83.44000000	6.62842706	12.49987418	2.70000000	0.90000000	2.80000000	1.47554723	109.50000000	76.50000000	119.10000000	146.80000000	109.50000000

#10
liczenie
obiektów (w)	udział punktów	pole obrazu(mm²)
	15	100.00	12288.0000
nr.	x(pix.):	y(pix.):	x(mm):	y(mm):	powierzchnia:(mm²)	długość:(mm)	szerokość:(mm)	kąt:(°)	obwód:(mm)	obwód C.:(mm)	średnica Fereta H(mm)	średnica Fereta V(mm)	średn. Martina:(mm)	średn. sitowa:(mm)	średnia jaskrawość	R	G	B	Y
1	528.50000000	914.50000000	52.90000000	91.50000000	1.13000000	1.60000000	1.00000000	104.22000000	4.26274164	8.27725521	1.50000000	1.00000000	1.60000000	1.19948351	126.00000000	91.20000000	136.20000000	164.00000000	125.90000000
2	1095.50000000	910.50000000	109.60000000	91.10000000	1.11000000	2.00000000	0.80000000	4.39000000	4.63847758	9.20524498	2.00000000	0.70000000	2.00000000	1.18614067	101.60000000	71.10000000	110.00000000	138.90000000	101.70000000
3	1252.50000000	851.50000000	125.20000000	85.20000000	1.08000000	1.90000000	0.80000000	8.64000000	4.43847756	8.83808840	1.90000000	0.70000000	1.90000000	1.16992842	83.90000000	57.10000000	90.90000000	118.00000000	83.90000000
4	1149.50000000	811.50000000	115.00000000	81.20000000	0.88000000	1.37965775	0.90000000	90.31000000	3.69705622	7.24124313	1.30000000	0.90000000	1.40000000	1.05851349	105.70000000	75.10000000	114.40000000	141.40000000	105.80000000
5	1176.50000000	781.50000000	117.70000000	78.20000000	1.31000000	2.10131168	0.90000000	133.78000000	5.05269111	9.81049252	1.90000000	0.80000000	2.10000000	1.28902196	131.30000000	93.90000000	143.10000000	168.80000000	131.30000000
6	355.50000000	771.50000000	35.60000000	77.20000000	1.08000000	1.75945683	0.90000000	40.20000000	4.32132030	8.57453763	1.60000000	1.00000000	1.80000000	1.16992842	137.20000000	97.90000000	149.80000000	175.90000000	137.20000000
7	640.50000000	726.50000000	64.00000000	72.70000000	1.60000000	2.55993938	0.80000000	60.07000000	5.79411249	11.29295876	2.30000000	0.90000000	2.60000000	1.42729929	129.10000000	93.40000000	139.70000000	168.20000000	129.10000000
8	646.50000000	571.50000000	64.70000000	57.20000000	1.19000000	1.97937164	0.90000000	85.78000000	5.11126978	9.36649319	1.80000000	0.90000000	2.00000000	1.23091635	127.90000000	91.50000000	138.80000000	166.90000000	127.90000000
9	823.50000000	542.50000000	82.40000000	54.20000000	0.79000000	1.50000000	0.70000000	9.04000000	3.75563488	7.14193743	1.50000000	0.70000000	1.50000000	0.99974649	121.20000000	85.90000000	132.10000000	158.20000000	121.20000000
10	974.50000000	432.50000000	97.50000000	43.20000000	1.10000000	1.91229839	0.70000000	50.20000000	4.96984842	8.65493678	1.90000000	0.90000000	1.90000000	1.18076132	131.80000000	93.40000000	143.90000000	170.60000000	131.80000000
11	303.50000000	334.50000000	30.40000000	33.50000000	1.51000000	1.92945175	0.90000000	92.71000000	4.95563487	9.18567445	1.90000000	0.90000000	1.90000000	1.38427798	163.50000000	126.00000000	176.80000000	193.40000000	163.50000000
12	188.50000000	327.50000000	18.90000000	32.80000000	0.48000000	0.90000000	0.80000000	102.95000000	2.92132030	5.34532850	0.80000000	0.70000000	0.90000000	0.77768167	109.00000000	77.00000000	118.90000000	142.20000000	109.10000000
13	276.50000000	325.50000000	27.70000000	32.60000000	0.86000000	1.43279686	0.80000000	64.84000000	3.63847758	7.15611401	1.30000000	0.90000000	1.40000000	1.04336945	136.50000000	97.30000000	149.50000000	171.50000000	136.40000000
14	640.50000000	266.50000000	64.00000000	26.70000000	0.40000000	0.82323761	0.70000000	49.07000000	2.33137082	4.79322614	0.70000000	0.70000000	0.80000000	0.71364965	129.40000000	96.90000000	141.30000000	153.00000000	129.40000000
15	779.50000000	123.50000000	78.00000000	12.40000000	0.91000000	1.30000000	0.90000000	143.50000000	3.72132027	6.96874271	1.20000000	0.90000000	1.30000000	1.07344389	142.00000000	105.70000000	154.60000000	172.00000000	142.00000000
