
#1
liczenie
obiektów (w)	udział punktów	pole obrazu(mm²)
	58	100.00	12288.0000
nr.	x(pix.):	y(pix.):	x(mm):	y(mm):	powierzchnia:(mm²)	długość:(mm)	szerokość:(mm)	kąt:(°)	obwód:(mm)	obwód C.:(mm)	średnica Fereta H(mm)	średnica Fereta V(mm)	średn. Martina:(mm)	średn. sitowa:(mm)	średnia jaskrawość	R	G	B	Y
1	182.50000000	918.50000000	18.20000000	91.90000000	0.03000000	0.00000000	0.00000000	0.00000000	0.56568542	0.56568542	0.30000000	0.00000000	0.00000000	0.19544100	110.70000000	86.00000000	115.70000000	151.00000000	110.80000000
2	509.50000000	841.50000000	51.00000000	84.20000000	138.88000000	0.00000000	0.00000000	0.00000000	24.79238799	24.79238799	8.90000000	2.10000000	0.00000000	13.29765047	124.80000000	98.00000000	133.40000000	150.50000000	124.80000000
3	1084.50000000	848.50000000	108.50000000	84.90000000	0.03000000	0.00000000	0.00000000	0.00000000	0.48284271	0.48284271	0.20000000	0.00000000	0.00000000	0.19544100	127.00000000	107.70000000	134.00000000	141.00000000	126.90000000
4	412.50000000	839.50000000	41.20000000	84.00000000	0.43000000	0.52320151	0.36750031	94.06000000	1.50710677	2.81964017	0.50000000	0.30000000	0.50000000	0.73777361	125.00000000	99.30000000	132.30000000	155.40000000	125.10000000
5	81.50000000	826.50000000	8.20000000	82.70000000	2.05000000	1.80000000	1.18832302	51.39000000	5.57989894	9.48668855	1.90000000	1.00000000	1.80000000	1.61619921	159.90000000	123.10000000	171.70000000	195.70000000	159.90000000
6	112.50000000	791.50000000	11.20000000	79.20000000	2.93000000	2.08742828	1.04047661	179.01000000	5.41421354	10.10381275	2.00000000	0.80000000	2.10000000	1.93057489	175.30000000	135.30000000	189.20000000	209.10000000	175.40000000
7	566.50000000	796.50000000	56.70000000	79.70000000	0.84000000	0.81815681	0.80000000	111.12000000	3.77989893	5.08374957	0.90000000	0.70000000	0.80000000	1.03143704	160.30000000	124.90000000	172.70000000	189.20000000	160.30000000
8	196.50000000	792.50000000	19.70000000	79.20000000	0.76000000	0.72949891	0.60000000	81.78000000	2.18994948	4.18665672	0.70000000	0.50000000	0.70000000	0.98369815	168.30000000	133.60000000	181.10000000	193.10000000	168.20000000
9	20.50000000	788.50000000	2.10000000	78.90000000	0.64000000	1.09552441	0.70000000	133.24000000	3.01421354	5.70944616	0.90000000	0.60000000	1.10000000	0.90270333	155.20000000	122.30000000	165.90000000	186.60000000	155.20000000
10	566.50000000	738.50000000	56.70000000	73.90000000	1.15000000	1.71861210	0.62527595	149.33000000	4.61421354	7.76986652	1.50000000	0.70000000	1.70000000	1.21151238	155.20000000	120.90000000	166.70000000	185.80000000	155.20000000
11	239.50000000	735.50000000	24.00000000	73.50000000	1.10000000	1.20000000	0.70000000	35.28000000	3.86274166	6.07282316	1.20000000	0.70000000	1.20000000	1.18345405	180.60000000	143.80000000	194.70000000	205.20000000	180.70000000
12	410.50000000	726.50000000	41.10000000	72.70000000	1.06000000	0.97188253	0.60182610	10.10000000	2.93137083	5.01253517	0.90000000	0.60000000	1.00000000	1.16265041	166.10000000	130.40000000	179.30000000	191.60000000	166.10000000
13	526.50000000	713.50000000	52.70000000	71.40000000	0.10000000	0.35625715	0.19032235	27.35000000	0.90710677	1.75692854	0.30000000	0.20000000	0.40000000	0.35323855	116.00000000	95.90000000	121.70000000	139.40000000	116.00000000
14	56.50000000	707.50000000	5.70000000	70.80000000	0.68000000	0.80000000	0.60000000	105.41000000	2.18994948	4.42069843	0.70000000	0.50000000	0.80000000	0.93048530	84.50000000	69.60000000	89.40000000	97.60000000	84.40000000
15	577.50000000	704.50000000	57.80000000	70.50000000	0.23000000	0.92128639	0.31353576	1.22000000	1.28284271	4.11803229	0.30000000	0.30000000	0.90000000	0.53523723	138.80000000	115.50000000	147.20000000	156.90000000	138.80000000
16	83.50000000	697.50000000	8.30000000	69.80000000	1.88000000	1.60000000	1.13328962	161.14000000	5.37989895	8.64958666	1.70000000	1.00000000	1.60000000	1.54525527	145.00000000	113.10000000	155.30000000	175.50000000	145.00000000
17	101.50000000	650.50000000	10.20000000	65.00000000	0.50000000	0.60630102	0.53192878	110.47000000	2.10710677	3.57967204	0.50000000	0.50000000	0.60000000	0.79388511	146.00000000	116.50000000	156.10000000	171.40000000	146.00000000
18	307.50000000	603.50000000	30.80000000	60.40000000	0.83000000	0.76745377	0.61257443	83.64000000	2.30710677	4.34914900	0.70000000	0.50000000	0.80000000	1.02954938	168.60000000	133.40000000	180.90000000	197.60000000	168.60000000
19	869.50000000	588.50000000	87.00000000	58.90000000	1.49000000	1.21094055	0.80108891	41.82000000	3.18994948	6.38671937	0.90000000	0.90000000	1.20000000	1.37504935	184.00000000	151.70000000	195.50000000	209.00000000	184.00000000
20	586.50000000	561.50000000	58.70000000	56.20000000	1.35000000	1.40000000	0.83027191	128.21000000	4.57989895	7.12138541	1.30000000	0.80000000	1.40000000	1.31105812	161.20000000	126.40000000	173.30000000	190.10000000	161.20000000
21	418.50000000	527.50000000	41.90000000	52.80000000	0.95000000	0.83213854	0.69126072	114.66000000	2.36568542	4.79613742	0.80000000	0.50000000	0.80000000	1.09749014	170.70000000	134.80000000	183.60000000	198.50000000	170.70000000
22	780.50000000	520.50000000	78.10000000	52.10000000	3.00000000	3.70000000	0.81484776	123.13000000	12.12548332	15.67334810	3.70000000	0.90000000	3.70000000	1.95419760	155.80000000	121.10000000	167.10000000	188.20000000	155.80000000
23	50.50000000	513.50000000	5.10000000	51.40000000	2.33000000	2.60000000	1.23815298	8.57000000	8.35979791	12.44050919	2.60000000	1.10000000	2.60000000	1.72097387	154.80000000	121.40000000	166.00000000	184.40000000	154.80000000
24	184.50000000	508.50000000	18.40000000	50.90000000	1.74000000	1.61331921	0.86788225	109.98000000	4.95563489	7.97183321	1.60000000	0.70000000	1.60000000	1.48726741	181.90000000	142.10000000	196.50000000	211.70000000	182.00000000
25	884.50000000	511.50000000	88.50000000	51.20000000	2.53000000	1.59427433	0.96353855	90.58000000	4.38994948	8.15823399	1.50000000	0.70000000	1.60000000	1.79479694	177.50000000	140.40000000	191.10000000	204.40000000	177.50000000
26	733.50000000	491.50000000	73.40000000	49.20000000	0.23000000	0.92128639	0.31353576	88.78000000	1.28284271	4.11803229	0.30000000	0.30000000	0.90000000	0.53523723	133.10000000	111.10000000	141.30000000	149.00000000	133.10000000
27	794.50000000	478.50000000	79.50000000	47.90000000	0.64000000	0.69507194	0.60000000	15.33000000	1.82426406	4.07407184	0.50000000	0.50000000	0.70000000	0.90270333	154.80000000	121.80000000	166.30000000	182.40000000	154.80000000
28	1259.50000000	445.50000000	126.00000000	44.60000000	0.79000000	1.01567707	0.40413623	41.50000000	2.27279217	4.66986959	0.90000000	0.40000000	1.00000000	1.00419406	136.70000000	104.40000000	148.10000000	163.00000000	136.70000000
29	166.50000000	405.50000000	16.70000000	40.60000000	1.46000000	1.21228809	0.80000000	65.09000000	3.27279217	6.38830936	1.10000000	0.70000000	1.20000000	1.36342574	170.10000000	135.40000000	183.20000000	193.20000000	170.10000000
30	1201.50000000	377.50000000	120.20000000	37.80000000	0.76000000	0.82693243	0.60005441	113.25000000	2.22426406	4.51138694	0.70000000	0.50000000	0.80000000	0.98110606	164.40000000	126.80000000	178.20000000	192.00000000	164.40000000
31	1249.50000000	368.50000000	125.00000000	36.90000000	0.88000000	0.98432684	0.56109161	10.36000000	2.50710677	4.94654503	0.90000000	0.40000000	1.00000000	1.05700885	165.90000000	128.80000000	178.90000000	196.10000000	165.90000000
32	279.50000000	335.50000000	28.00000000	33.60000000	3.18000000	2.35977306	0.99197054	93.12000000	7.07279218	10.97297480	2.10000000	0.90000000	2.40000000	2.01161298	175.80000000	138.90000000	189.10000000	203.60000000	175.80000000
33	430.50000000	330.50000000	43.10000000	33.10000000	2.18000000	1.95440178	0.90000000	52.80000000	5.23847760	9.27597591	1.90000000	0.90000000	2.00000000	1.66445771	173.40000000	132.70000000	187.80000000	206.70000000	173.50000000
34	39.50000000	330.50000000	4.00000000	33.10000000	1.41000000	1.27363701	0.87499247	118.63000000	3.93137083	6.80833446	1.20000000	0.70000000	1.30000000	1.34035107	170.30000000	136.60000000	182.60000000	195.70000000	170.30000000
35	165.50000000	301.50000000	16.60000000	30.20000000	2.32000000	1.75696526	1.02986193	58.93000000	5.03847760	8.90471594	1.80000000	0.90000000	1.80000000	1.71730635	146.40000000	112.60000000	157.20000000	179.80000000	146.40000000
36	1123.50000000	297.50000000	112.40000000	29.80000000	1.35000000	1.32385635	0.80000000	33.09000000	3.41421353	6.77416544	1.30000000	0.70000000	1.30000000	1.31105812	174.80000000	134.60000000	189.00000000	206.90000000	174.80000000
37	15.50000000	254.50000000	1.60000000	25.50000000	0.91000000	1.09239140	0.70000000	54.73000000	2.93137083	5.69863591	0.90000000	0.70000000	1.10000000	1.07640512	177.80000000	142.10000000	191.10000000	203.10000000	177.80000000
38	339.50000000	244.50000000	34.00000000	24.50000000	1.28000000	1.10000000	0.65292416	74.42000000	2.64852811	5.59689868	1.00000000	0.50000000	1.10000000	1.27827648	156.60000000	122.60000000	168.40000000	184.80000000	156.60000000
39	396.50000000	229.50000000	39.70000000	23.00000000	1.72000000	1.26452427	0.83032007	49.12000000	3.41421351	6.65202428	1.20000000	0.80000000	1.30000000	1.47985540	179.00000000	143.60000000	192.20000000	203.80000000	179.00000000
40	1092.50000000	229.50000000	109.20000000	23.00000000	0.01000000	0.00000000	0.00000000	0.00000000	0.00000000	0.00000000	0.00000000	0.00000000	0.00000000	0.11283792	117.00000000	96.00000000	124.00000000	135.00000000	116.90000000
41	452.50000000	181.50000000	45.20000000	18.20000000	0.89000000	1.20000000	0.71864638	76.75000000	4.00416301	6.12283148	1.10000000	0.70000000	1.20000000	1.06411201	163.70000000	128.40000000	176.50000000	190.50000000	163.70000000
42	1203.50000000	167.50000000	120.40000000	16.80000000	3.48000000	2.00000000	0.90808506	108.42000000	7.12132031	9.46096521	2.00000000	0.90000000	2.00000000	2.10635944	172.20000000	130.50000000	186.40000000	208.20000000	172.20000000
43	995.50000000	163.50000000	99.60000000	16.40000000	2.14000000	2.15696754	0.96378994	61.87000000	5.23847760	10.16584367	2.10000000	0.90000000	2.20000000	1.64874693	162.20000000	120.50000000	175.90000000	201.10000000	162.20000000
44	133.50000000	154.50000000	13.40000000	15.50000000	1.28000000	1.27984028	1.00000000	103.72000000	3.47279218	7.18933273	1.00000000	0.90000000	1.30000000	1.27536799	165.60000000	128.90000000	178.70000000	194.80000000	165.70000000
45	211.50000000	96.50000000	21.20000000	9.70000000	1.12000000	1.10000000	0.60155692	31.34000000	3.63847760	5.46090393	1.10000000	0.60000000	1.10000000	1.19416426	160.70000000	122.50000000	174.20000000	191.20000000	160.70000000
46	188.50000000	87.50000000	18.90000000	8.80000000	1.00000000	0.80000000	0.70000000	50.61000000	2.44852811	4.71762642	0.70000000	0.70000000	0.80000000	1.12649697	150.70000000	117.00000000	163.20000000	174.10000000	150.70000000
47	31.50000000	77.50000000	3.20000000	7.80000000	1.89000000	1.40000000	0.89655752	97.83000000	4.27279218	7.30179044	1.40000000	0.70000000	1.40000000	1.55080883	180.20000000	147.90000000	192.30000000	202.90000000	180.20000000
48	863.50000000	78.50000000	86.40000000	7.90000000	0.31000000	0.53879309	0.40520792	177.93000000	1.70710677	2.98053214	0.50000000	0.40000000	0.50000000	0.63258280	165.80000000	133.50000000	177.30000000	191.80000000	165.90000000
49	760.50000000	71.50000000	76.00000000	7.20000000	0.84000000	0.80000000	0.60000000	66.02000000	2.18994948	4.42069843	0.70000000	0.60000000	0.80000000	1.03417659	168.20000000	133.00000000	181.60000000	191.50000000	168.20000000
50	867.50000000	63.50000000	86.80000000	6.40000000	1.04000000	0.83787336	0.71724706	139.37000000	2.70710677	4.89290635	0.70000000	0.70000000	0.80000000	1.15072548	171.00000000	133.80000000	184.50000000	198.80000000	171.00000000
51	65.50000000	56.50000000	6.60000000	5.70000000	1.27000000	0.97283516	0.90000000	86.97000000	3.01421353	5.88591009	0.90000000	0.90000000	1.00000000	1.26911309	173.80000000	141.80000000	186.00000000	194.30000000	173.70000000
52	427.50000000	39.50000000	42.80000000	4.00000000	2.00000000	1.70000000	1.00000000	158.30000000	5.49705625	8.62544451	1.50000000	1.10000000	1.70000000	1.59747796	187.70000000	149.80000000	202.00000000	213.60000000	187.80000000
53	1063.50000000	44.50000000	106.40000000	4.50000000	0.64000000	0.63283029	0.57286258	167.90000000	1.82426406	3.79013875	0.50000000	0.50000000	0.60000000	0.90270333	145.40000000	114.50000000	155.80000000	172.60000000	145.40000000
54	190.50000000	35.50000000	19.10000000	3.60000000	2.07000000	1.42680712	0.99508505	90.51000000	4.95563489	7.66916230	1.40000000	0.90000000	1.40000000	1.62149303	193.00000000	163.20000000	204.10000000	214.10000000	193.00000000
55	460.50000000	15.50000000	46.10000000	1.60000000	1.53000000	1.00224743	0.63387694	45.00000000	2.44852812	5.20538467	0.70000000	0.70000000	1.00000000	1.39572795	174.20000000	140.50000000	186.40000000	199.70000000	174.20000000
56	1087.50000000	14.50000000	108.80000000	1.50000000	1.08000000	1.11499090	0.80000000	105.72000000	3.87279218	6.05688358	1.00000000	0.70000000	1.10000000	1.17083499	160.20000000	125.50000000	171.20000000	194.30000000	160.20000000
57	559.50000000	11.50000000	56.00000000	1.20000000	0.25000000	0.45026808	0.31572137	23.80000000	1.24852812	2.42502440	0.40000000	0.30000000	0.50000000	0.55851919	133.90000000	108.20000000	142.60000000	155.50000000	133.80000000
58	580.50000000	11.50000000	58.10000000	1.20000000	0.90000000	0.81956682	0.57596126	103.93000000	2.16568542	4.41764326	0.70000000	0.50000000	0.80000000	1.07047447	173.20000000	139.80000000	185.40000000	197.10000000	173.10000000

#2
liczenie
obiektów (w)	udział punktów	pole obrazu(mm²)
	216	100.00	12288.0000
nr.	x(pix.):	y(pix.):	x(mm):	y(mm):	powierzchnia:(mm²)	długość:(mm)	szerokość:(mm)	kąt:(°)	obwód:(mm)	obwód C.:(mm)	średnica Fereta H(mm)	średnica Fereta V(mm)	średn. Martina:(mm)	średn. sitowa:(mm)	średnia jaskrawość	R	G	B	Y
1	21.50000000	949.00000000	2.10000000	94.90000000	1.18000000	1.00000000	0.80000000	75.36000000	3.87279218	5.67233358	0.90000000	0.70000000	1.00000000	1.22573352	145.30000000	108.90000000	155.50000000	188.50000000	145.30000000
2	945.50000000	950.50000000	94.60000000	95.10000000	0.82000000	1.30000000	0.60822077	99.57000000	3.82426406	6.19349461	1.20000000	0.40000000	1.30000000	1.01971187	148.50000000	105.50000000	162.10000000	191.30000000	148.50000000
3	826.50000000	949.50000000	82.70000000	95.00000000	0.40000000	0.00000000	0.00000000	0.00000000	1.96568542	1.96568542	0.70000000	0.30000000	0.00000000	0.71364965	133.10000000	95.40000000	143.00000000	181.10000000	133.10000000
4	409.50000000	942.50000000	41.00000000	94.20000000	0.07000000	2.30570126	0.14244475	134.93000000	0.84852812	9.28715163	0.30000000	0.10000000	2.30000000	0.29134625	118.20000000	90.00000000	126.00000000	151.00000000	118.10000000
5	637.50000000	939.50000000	63.80000000	94.00000000	0.86000000	1.00218668	0.70000000	76.16000000	3.37989895	5.38979489	1.00000000	0.70000000	1.00000000	1.04828606	82.70000000	61.40000000	89.40000000	104.20000000	82.70000000
6	1201.50000000	933.50000000	120.20000000	93.40000000	0.38000000	0.67783146	0.54338765	141.73000000	2.92132030	3.84820641	0.70000000	0.40000000	0.70000000	0.69923100	117.60000000	84.00000000	125.00000000	167.60000000	117.60000000
7	975.50000000	914.50000000	97.60000000	91.50000000	1.35000000	1.60000000	0.72913952	33.33000000	4.41421354	7.57526056	1.70000000	0.70000000	1.60000000	1.31105812	136.60000000	99.10000000	146.30000000	185.50000000	136.70000000
8	268.50000000	916.50000000	26.90000000	91.70000000	0.82000000	1.00000000	0.60000000	137.72000000	3.18994948	5.10539977	0.70000000	0.70000000	1.00000000	1.02040531	134.30000000	100.50000000	143.90000000	174.50000000	134.40000000
9	627.50000000	915.50000000	62.80000000	91.60000000	1.27000000	1.60739117	1.00000000	98.73000000	4.40416301	8.30287033	1.10000000	1.00000000	1.60000000	1.26994885	89.40000000	67.20000000	97.00000000	108.80000000	89.40000000
10	908.50000000	906.50000000	90.90000000	90.70000000	1.94000000	1.14693213	0.90000000	33.20000000	3.53137082	6.45404429	0.90000000	0.90000000	1.10000000	1.57326974	159.10000000	118.40000000	173.20000000	193.50000000	159.10000000
11	613.50000000	905.50000000	61.40000000	90.60000000	0.15000000	6.99973602	0.10024493	179.92000000	0.82426406	28.00816111	0.30000000	0.10000000	7.00000000	0.43701937	119.70000000	83.20000000	128.50000000	170.50000000	119.70000000
12	1062.50000000	901.50000000	106.20000000	90.20000000	0.51000000	0.56527801	0.50000000	97.31000000	1.58994946	3.34981197	0.50000000	0.40000000	0.60000000	0.80845303	124.80000000	88.90000000	133.00000000	176.90000000	124.80000000
13	436.50000000	895.50000000	43.70000000	89.60000000	0.84000000	0.90000000	0.66708469	53.01000000	2.42426406	4.95036853	0.70000000	0.60000000	0.90000000	1.03622650	144.40000000	107.30000000	155.00000000	187.00000000	144.40000000
14	1164.50000000	894.50000000	116.50000000	89.50000000	0.71000000	0.90000000	0.56914549	66.93000000	2.81421353	4.67416388	0.80000000	0.60000000	0.90000000	0.95153286	137.60000000	98.80000000	146.70000000	192.00000000	137.60000000
15	777.50000000	886.50000000	77.80000000	88.70000000	0.42000000	0.53893995	0.50000000	54.94000000	1.62426406	3.26507250	0.40000000	0.40000000	0.50000000	0.73127328	145.70000000	107.50000000	156.60000000	188.10000000	145.50000000
16	24.50000000	883.50000000	2.50000000	88.40000000	0.98000000	0.83434086	0.64516253	43.82000000	2.58994948	4.66701487	0.70000000	0.70000000	0.80000000	1.11703839	135.10000000	105.50000000	143.40000000	170.10000000	135.10000000
17	927.50000000	880.50000000	92.80000000	88.10000000	1.52000000	1.50000000	1.30000000	38.88000000	6.27695520	8.80768299	1.40000000	1.20000000	1.50000000	1.38886929	77.00000000	56.00000000	84.20000000	95.40000000	77.00000000
18	873.50000000	877.50000000	87.40000000	87.80000000	4.16000000	3.00000000	2.20000000	154.67000000	17.20243851	16.43309004	2.60000000	2.40000000	3.00000000	2.30213176	81.80000000	60.40000000	89.30000000	99.60000000	81.90000000
19	598.50000000	874.50000000	59.90000000	87.50000000	0.01000000	0.00000000	0.00000000	0.00000000	0.00000000	0.00000000	0.00000000	0.00000000	0.00000000	0.11283792	113.00000000	88.00000000	121.00000000	140.00000000	113.30000000
20	518.50000000	858.50000000	51.90000000	85.90000000	1.83000000	1.30000000	0.90000000	129.94000000	4.42842708	6.96874271	1.20000000	1.00000000	1.30000000	1.52548029	85.50000000	64.90000000	93.00000000	101.50000000	85.60000000
21	435.50000000	836.50000000	43.60000000	83.70000000	0.79000000	0.73088918	0.70000000	113.82000000	3.21421354	4.49579466	0.70000000	0.70000000	0.70000000	1.00419406	151.20000000	115.90000000	163.10000000	182.70000000	151.20000000
22	597.50000000	838.50000000	59.80000000	83.90000000	4.81000000	2.40000000	2.20000000	21.99000000	16.03675311	14.45815656	2.20000000	2.00000000	2.40000000	2.47575749	82.80000000	62.50000000	90.30000000	97.80000000	82.80000000
23	298.00000000	830.00000000	29.80000000	83.00000000	0.64000000	0.65691838	0.60000000	132.45000000	2.27279218	3.95075018	0.60000000	0.60000000	0.70000000	0.90093852	150.00000000	112.10000000	162.40000000	184.90000000	150.00000000
24	200.50000000	831.50000000	20.10000000	83.20000000	0.14000000	0.20000000	0.20000000	0.00000000	1.04852812	1.25663706	0.20000000	0.20000000	0.20000000	0.42220082	115.50000000	90.50000000	122.50000000	144.70000000	115.50000000
25	1089.50000000	825.50000000	109.00000000	82.60000000	0.60000000	0.80000000	0.58664532	159.98000000	2.10710677	4.38209585	0.70000000	0.50000000	0.80000000	0.87403874	143.50000000	103.80000000	153.10000000	198.30000000	143.50000000
26	581.50000000	825.50000000	58.20000000	82.60000000	2.48000000	2.40000000	1.40000000	122.36000000	13.37817445	12.14564631	2.00000000	1.80000000	2.40000000	1.77535024	85.80000000	64.80000000	93.50000000	102.30000000	85.90000000
27	364.50000000	823.50000000	36.50000000	82.40000000	0.01000000	0.00000000	0.00000000	0.00000000	0.00000000	0.00000000	0.00000000	0.00000000	0.00000000	0.11283792	110.00000000	89.00000000	117.00000000	128.00000000	109.90000000
28	954.50000000	814.50000000	95.50000000	81.50000000	0.82000000	0.80656652	0.62695727	60.60000000	3.01421353	4.52123955	0.90000000	0.60000000	0.80000000	1.01991995	142.60000000	103.90000000	153.20000000	189.70000000	142.60000000
29	171.50000000	813.50000000	17.20000000	81.40000000	0.83000000	1.30000000	0.60000000	119.76000000	3.41421354	6.17335602	1.20000000	0.60000000	1.30000000	1.02490128	135.10000000	97.40000000	146.00000000	178.10000000	135.10000000
30	91.50000000	812.50000000	9.20000000	81.20000000	0.82000000	0.98871508	0.65765862	55.18000000	2.73137083	5.22465262	0.80000000	0.70000000	1.00000000	1.02000912	128.50000000	94.30000000	138.90000000	165.00000000	128.50000000
31	411.50000000	802.50000000	41.20000000	80.20000000	0.98000000	1.05270185	0.70000000	177.88000000	2.98994948	5.56216170	0.90000000	0.70000000	1.10000000	1.11540886	150.30000000	109.60000000	163.10000000	190.90000000	150.30000000
32	586.50000000	804.50000000	58.70000000	80.50000000	0.01000000	0.00000000	0.00000000	0.00000000	0.00000000	0.00000000	0.00000000	0.00000000	0.00000000	0.11283792	117.00000000	93.00000000	125.00000000	136.00000000	116.70000000
33	1160.50000000	801.50000000	116.10000000	80.20000000	0.41000000	0.70000000	0.44773111	129.95000000	2.18994948	3.64938564	0.50000000	0.50000000	0.70000000	0.72125536	125.10000000	92.00000000	133.50000000	169.50000000	125.20000000
34	790.50000000	802.50000000	79.10000000	80.20000000	0.01000000	0.00000000	0.00000000	0.00000000	0.00000000	0.00000000	0.00000000	0.00000000	0.00000000	0.11283792	114.00000000	90.00000000	122.00000000	137.00000000	114.10000000
35	879.50000000	790.50000000	88.00000000	79.10000000	0.54000000	0.67020736	0.60000000	166.21000000	1.98994946	3.99352244	0.50000000	0.50000000	0.70000000	0.82918596	127.20000000	92.60000000	137.20000000	166.80000000	127.20000000
36	124.50000000	784.50000000	12.50000000	78.50000000	1.05000000	1.00443954	0.73875790	176.19000000	3.24852812	5.50826559	0.90000000	0.70000000	1.00000000	1.15624458	142.50000000	101.40000000	155.30000000	184.70000000	142.50000000
37	1136.50000000	780.50000000	113.70000000	78.10000000	1.30000000	1.00000000	0.87393484	13.37000000	2.90710677	5.89380260	0.90000000	0.70000000	1.00000000	1.28655020	150.90000000	108.80000000	163.30000000	197.40000000	150.90000000
38	608.50000000	784.50000000	60.90000000	78.50000000	1.36000000	1.50000000	1.40000000	16.90000000	7.65685414	9.11332717	1.40000000	1.30000000	1.50000000	1.31715282	84.20000000	62.70000000	92.00000000	100.80000000	84.20000000
39	1077.50000000	781.50000000	107.80000000	78.20000000	0.14000000	0.33270497	0.27880993	54.54000000	0.90710677	1.92486315	0.30000000	0.20000000	0.30000000	0.41459298	116.00000000	85.40000000	124.90000000	150.80000000	116.00000000
40	326.50000000	774.50000000	32.60000000	77.50000000	0.11000000	0.36553693	0.24115245	0.00000000	1.04852812	1.92605293	0.30000000	0.20000000	0.40000000	0.37762790	120.10000000	91.10000000	127.40000000	159.00000000	120.10000000
41	596.50000000	770.50000000	59.70000000	77.10000000	4.31000000	2.60000000	2.00000000	107.30000000	14.21248903	14.51285779	2.50000000	1.90000000	2.60000000	2.34267308	86.10000000	64.30000000	94.20000000	102.80000000	86.20000000
42	1063.50000000	768.50000000	106.40000000	76.90000000	0.01000000	0.00000000	0.00000000	0.00000000	0.00000000	0.00000000	0.00000000	0.00000000	0.00000000	0.11283792	111.00000000	82.00000000	119.00000000	148.00000000	111.20000000
43	1143.50000000	764.50000000	114.40000000	76.50000000	1.33000000	1.24296637	0.86383972	178.66000000	4.58994948	6.67241972	1.20000000	0.70000000	1.20000000	1.30033154	150.40000000	106.90000000	163.30000000	198.90000000	150.50000000
44	925.50000000	766.50000000	92.60000000	76.70000000	0.01000000	0.00000000	0.00000000	0.00000000	0.00000000	0.00000000	0.00000000	0.00000000	0.00000000	0.11283792	113.00000000	86.00000000	121.00000000	141.00000000	112.80000000
45	60.50000000	764.50000000	6.10000000	76.50000000	0.85000000	0.90000000	0.80000000	57.59000000	3.32132030	5.34532850	0.80000000	0.80000000	0.90000000	1.04087036	82.10000000	62.10000000	89.10000000	97.90000000	82.10000000
46	1116.50000000	756.50000000	111.70000000	75.70000000	0.48000000	0.60000000	0.60000000	170.67000000	1.78994948	3.76991118	0.60000000	0.50000000	0.60000000	0.78447378	82.00000000	58.60000000	89.30000000	106.10000000	82.00000000
47	1243.50000000	735.50000000	124.40000000	73.50000000	0.09000000	0.00000000	0.00000000	0.00000000	1.69705625	1.69705625	0.60000000	0.10000000	0.00000000	0.33851375	110.80000000	80.40000000	118.80000000	148.30000000	110.70000000
48	942.50000000	752.50000000	94.20000000	75.20000000	0.10000000	3.45996971	0.14160883	135.05000000	0.84852812	13.88623438	0.30000000	0.10000000	3.50000000	0.35682482	117.30000000	88.70000000	125.30000000	151.20000000	117.30000000
49	421.50000000	744.50000000	42.20000000	74.50000000	1.74000000	1.83434486	0.85233622	20.39000000	5.23847760	8.72480046	1.80000000	0.90000000	1.80000000	1.48843435	146.20000000	104.80000000	158.30000000	192.60000000	146.20000000
50	1083.50000000	742.50000000	108.40000000	74.20000000	1.79000000	1.30000000	1.00560637	151.67000000	5.26274166	7.27282930	1.30000000	0.90000000	1.30000000	1.50786009	158.40000000	116.80000000	172.00000000	198.00000000	158.50000000
51	803.50000000	748.50000000	80.40000000	74.90000000	1.16000000	1.00000000	0.76302080	131.35000000	2.64852812	5.56373960	0.80000000	0.70000000	1.00000000	1.21530156	92.00000000	69.90000000	99.40000000	112.40000000	92.00000000
52	53.50000000	736.50000000	5.40000000	73.70000000	1.62000000	1.30000000	1.12170382	2.94000000	5.22842708	7.61832028	1.30000000	1.10000000	1.30000000	1.43787986	80.50000000	61.10000000	87.20000000	97.30000000	80.50000000
53	859.50000000	734.50000000	86.00000000	73.50000000	0.37000000	0.42775488	0.40000000	70.35000000	1.22426406	2.60119961	0.40000000	0.30000000	0.40000000	0.68945106	131.90000000	98.80000000	141.90000000	167.70000000	131.90000000
54	356.50000000	727.50000000	35.60000000	72.80000000	2.40000000	1.50000000	1.20000000	143.70000000	6.57989895	8.50850037	1.40000000	1.20000000	1.50000000	1.74807749	175.70000000	137.80000000	189.50000000	204.70000000	175.70000000
55	1067.50000000	735.50000000	106.80000000	73.50000000	2.39000000	1.90000000	1.40000000	50.70000000	8.85685412	10.42684148	1.60000000	1.60000000	1.90000000	1.74342483	79.30000000	57.60000000	87.00000000	96.20000000	79.30000000
56	1031.50000000	716.50000000	103.20000000	71.70000000	2.28000000	2.02608662	0.81508350	10.15000000	5.67279218	9.33602715	1.90000000	0.90000000	2.00000000	1.70295271	150.30000000	106.00000000	163.80000000	197.00000000	150.30000000
57	299.50000000	720.50000000	30.00000000	72.00000000	0.22000000	0.41462202	0.31554964	90.00000000	1.13137083	2.30447184	0.30000000	0.30000000	0.40000000	0.52925674	110.80000000	81.50000000	119.00000000	145.10000000	110.70000000
58	573.50000000	721.50000000	57.40000000	72.20000000	0.05000000	0.00000000	0.00000000	0.00000000	0.76568542	0.76568542	0.30000000	0.10000000	0.00000000	0.25231325	119.40000000	92.00000000	128.40000000	144.20000000	119.30000000
59	481.50000000	711.50000000	48.20000000	71.20000000	1.84000000	1.74603977	0.80000000	106.15000000	6.41421354	8.27717464	1.50000000	0.90000000	1.70000000	1.53060797	165.00000000	121.40000000	179.80000000	203.50000000	165.10000000
60	645.50000000	709.50000000	64.50000000	71.00000000	1.20000000	0.90000000	0.85878906	101.19000000	2.84852812	5.52615723	0.80000000	0.70000000	0.90000000	1.23607745	169.20000000	124.70000000	185.70000000	201.10000000	169.20000000
61	268.50000000	711.50000000	26.90000000	71.20000000	0.38000000	0.52838125	0.41200438	104.52000000	1.50710677	2.96563087	0.50000000	0.40000000	0.50000000	0.69374675	127.70000000	97.60000000	136.80000000	160.20000000	127.70000000
62	1180.50000000	681.50000000	118.10000000	68.20000000	1.05000000	1.06144600	0.70000000	25.67000000	3.29705625	5.59215229	1.00000000	0.70000000	1.10000000	1.15824500	141.00000000	101.10000000	152.20000000	188.10000000	141.00000000
63	193.50000000	699.50000000	19.40000000	70.00000000	1.42000000	1.20000000	0.80763350	72.66000000	3.61421354	6.36753854	1.20000000	0.70000000	1.20000000	1.34461896	166.80000000	124.20000000	182.20000000	199.50000000	166.90000000
64	906.50000000	703.50000000	90.70000000	70.40000000	0.36000000	0.57489510	0.50997720	124.38000000	2.01421354	3.41127850	0.50000000	0.50000000	0.60000000	0.67702750	84.20000000	63.40000000	91.40000000	102.20000000	84.20000000
65	579.50000000	700.50000000	58.00000000	70.00000000	0.79000000	0.80054979	0.80000000	129.13000000	3.17989894	5.02827562	0.80000000	0.80000000	0.80000000	1.00020123	89.90000000	67.40000000	97.70000000	109.10000000	89.90000000
66	1016.50000000	696.50000000	101.70000000	69.70000000	0.82000000	0.72348247	0.60680041	178.74000000	2.38994948	4.18724890	0.70000000	0.60000000	0.70000000	1.02179079	146.70000000	104.80000000	158.70000000	195.40000000	146.80000000
67	1236.50000000	695.50000000	123.70000000	69.50000000	0.02000000	0.00000000	0.00000000	0.00000000	0.28284271	0.28284271	0.10000000	0.00000000	0.00000000	0.15957691	110.50000000	82.50000000	116.50000000	153.50000000	110.60000000
68	809.50000000	681.50000000	81.00000000	68.20000000	2.12000000	1.73628712	0.81074781	8.80000000	4.49705622	8.26814850	1.70000000	0.70000000	1.70000000	1.64246044	157.60000000	113.70000000	171.70000000	200.40000000	157.60000000
69	1207.50000000	682.50000000	120.80000000	68.20000000	0.56000000	0.60000000	0.57121534	45.00000000	2.04852812	3.68003716	0.50000000	0.50000000	0.60000000	0.84440165	139.20000000	101.40000000	149.40000000	186.30000000	139.20000000
70	616.50000000	683.50000000	61.70000000	68.40000000	0.04000000	0.00000000	0.00000000	0.00000000	0.40000000	0.40000000	0.10000000	0.10000000	0.00000000	0.22567583	118.50000000	90.20000000	127.80000000	144.50000000	118.40000000
71	269.50000000	677.50000000	27.00000000	67.80000000	2.71000000	1.90000000	1.30000000	130.17000000	5.93553383	10.14164966	1.90000000	1.20000000	1.90000000	1.85736616	80.30000000	59.20000000	87.70000000	97.70000000	80.30000000
72	303.50000000	676.50000000	30.40000000	67.70000000	1.08000000	1.40000000	0.69756060	115.89000000	4.74558437	6.77576760	1.30000000	0.70000000	1.40000000	1.17135272	80.30000000	60.00000000	87.60000000	96.40000000	80.40000000
73	409.50000000	675.50000000	41.00000000	67.50000000	0.01000000	0.00000000	0.00000000	0.00000000	0.00000000	0.00000000	0.00000000	0.00000000	0.00000000	0.11283792	115.00000000	91.00000000	123.00000000	138.00000000	115.10000000
74	445.50000000	666.50000000	44.60000000	66.70000000	0.03000000	0.00000000	0.00000000	0.00000000	0.56568542	0.56568542	0.10000000	0.10000000	0.00000000	0.19544100	116.70000000	89.70000000	124.70000000	148.30000000	116.90000000
75	1207.50000000	661.50000000	120.80000000	66.20000000	0.66000000	0.70000000	0.54074645	96.98000000	2.38994948	3.91399060	0.70000000	0.50000000	0.70000000	0.91669957	137.50000000	100.80000000	146.90000000	185.60000000	137.50000000
76	949.50000000	649.50000000	95.00000000	65.00000000	1.32000000	1.40000000	0.80000000	152.18000000	4.57989895	7.04063244	1.40000000	0.80000000	1.40000000	1.29509880	148.30000000	108.70000000	160.80000000	188.40000000	148.40000000
77	327.50000000	651.50000000	32.80000000	65.20000000	0.36000000	0.58111000	0.41938515	16.39000000	1.78994948	3.16371382	0.50000000	0.40000000	0.60000000	0.67702750	136.60000000	104.60000000	146.40000000	169.40000000	136.50000000
78	1108.50000000	646.50000000	110.90000000	64.70000000	0.90000000	0.89656219	0.80000000	146.91000000	3.24852812	5.33422473	0.80000000	0.70000000	0.90000000	1.07047447	151.10000000	109.10000000	163.70000000	197.20000000	151.20000000
79	1016.50000000	649.50000000	101.70000000	65.00000000	0.01000000	0.00000000	0.00000000	0.00000000	0.00000000	0.00000000	0.00000000	0.00000000	0.00000000	0.11283792	110.00000000	85.00000000	117.00000000	138.00000000	109.80000000
80	396.50000000	647.50000000	39.70000000	64.80000000	1.28000000	1.36256762	0.73868499	175.82000000	4.65269113	6.74758435	1.30000000	0.80000000	1.40000000	1.27827648	78.70000000	58.30000000	85.90000000	95.20000000	78.70000000
81	103.50000000	634.50000000	10.40000000	63.50000000	2.66000000	2.25315304	1.00000000	47.68000000	7.26274166	10.60287122	2.20000000	1.10000000	2.30000000	1.83884759	145.80000000	106.80000000	157.80000000	186.50000000	145.80000000
82	58.50000000	622.50000000	5.90000000	62.20000000	3.17000000	2.20000000	1.42321472	108.16000000	7.88700571	11.51384189	2.10000000	1.30000000	2.20000000	2.01002999	140.20000000	103.60000000	151.40000000	178.80000000	140.20000000
83	526.50000000	622.50000000	52.70000000	62.20000000	1.35000000	1.05126181	0.80000000	164.54000000	3.67279218	5.84272544	1.00000000	0.80000000	1.10000000	1.31057245	157.60000000	116.00000000	171.10000000	198.30000000	157.70000000
84	630.50000000	622.50000000	63.10000000	62.20000000	4.21000000	3.90000000	1.50000000	133.66000000	15.68528122	17.81325535	4.00000000	1.60000000	3.90000000	2.31576417	88.70000000	66.40000000	96.70000000	106.30000000	88.80000000
85	979.50000000	610.50000000	98.00000000	61.10000000	5.46000000	2.50990791	1.90000000	171.57000000	10.18406197	13.92046435	2.40000000	1.90000000	2.50000000	2.63606043	171.00000000	128.60000000	186.10000000	204.80000000	171.00000000
86	511.50000000	622.50000000	51.20000000	62.20000000	0.05000000	0.00000000	0.00000000	0.00000000	0.56568542	0.56568542	0.10000000	0.10000000	0.00000000	0.25231325	113.40000000	88.20000000	121.20000000	139.60000000	113.40000000
87	1066.50000000	618.50000000	106.70000000	61.90000000	0.65000000	0.80000000	0.70000000	108.82000000	2.38994948	4.71762642	0.70000000	0.60000000	0.80000000	0.91072752	159.40000000	118.60000000	172.50000000	198.30000000	159.40000000
88	939.50000000	613.50000000	94.00000000	61.40000000	1.44000000	1.17797260	0.80000000	15.07000000	3.95563489	6.27084192	1.20000000	0.70000000	1.20000000	1.35405500	143.20000000	105.50000000	154.70000000	182.80000000	143.20000000
89	589.50000000	613.50000000	59.00000000	61.40000000	0.16000000	0.42204685	0.30216088	45.00000000	1.13137083	2.29077961	0.30000000	0.30000000	0.40000000	0.44781160	116.20000000	86.40000000	125.90000000	145.10000000	116.30000000
90	1013.50000000	606.50000000	101.40000000	60.70000000	1.02000000	0.87569370	0.70000000	51.64000000	2.87279218	4.96558592	0.70000000	0.70000000	0.90000000	1.13960710	151.30000000	110.80000000	163.90000000	192.70000000	151.30000000
91	1206.50000000	607.50000000	120.70000000	60.80000000	0.19000000	0.37729068	0.34299960	122.66000000	1.10710677	2.26414100	0.30000000	0.30000000	0.40000000	0.49507435	114.70000000	83.50000000	122.60000000	155.90000000	114.70000000
92	132.50000000	598.50000000	13.20000000	59.90000000	2.54000000	1.84183273	1.30000000	38.06000000	6.31126978	9.94388615	1.50000000	1.40000000	1.80000000	1.79901464	163.00000000	121.30000000	177.90000000	196.60000000	163.10000000
93	346.50000000	603.50000000	34.60000000	60.40000000	0.56000000	0.80000000	0.60000000	75.62000000	2.53137083	4.42069843	0.70000000	0.50000000	0.80000000	0.84440165	139.10000000	109.20000000	150.30000000	159.60000000	139.00000000
94	829.50000000	599.50000000	83.00000000	60.00000000	0.01000000	0.00000000	0.00000000	0.00000000	0.00000000	0.00000000	0.00000000	0.00000000	0.00000000	0.11283792	116.00000000	91.00000000	123.00000000	144.00000000	115.80000000
95	1200.50000000	589.50000000	120.10000000	59.00000000	0.91000000	1.20000000	0.62503033	69.44000000	3.49705623	5.87667601	1.20000000	0.60000000	1.20000000	1.07747991	131.80000000	94.20000000	141.30000000	181.40000000	131.80000000
96	965.50000000	590.50000000	96.60000000	59.10000000	0.27000000	0.65621586	0.43218064	98.67000000	2.08284271	3.45561430	0.40000000	0.40000000	0.70000000	0.58269250	157.80000000	122.70000000	170.50000000	185.20000000	157.90000000
97	718.50000000	574.50000000	71.90000000	57.50000000	0.74000000	1.20000000	0.61220236	162.98000000	4.06274165	5.84395359	1.00000000	0.70000000	1.20000000	0.96804148	85.80000000	64.80000000	93.10000000	103.40000000	85.80000000
98	694.50000000	566.50000000	69.50000000	56.70000000	1.08000000	0.90000000	0.74567075	54.18000000	2.78994946	5.18140033	0.70000000	0.70000000	0.90000000	1.17264603	166.70000000	124.50000000	182.00000000	198.80000000	166.70000000
99	1268.00000000	559.50000000	126.80000000	56.00000000	0.66000000	1.00000000	0.60000000	28.90000000	2.87279217	5.10539977	1.00000000	0.60000000	1.00000000	0.91989923	132.00000000	93.70000000	141.60000000	183.00000000	132.00000000
100	654.50000000	560.50000000	65.50000000	56.10000000	0.29000000	1.75722523	0.40507140	100.46000000	1.73137081	7.47526143	0.70000000	0.30000000	1.80000000	0.60238963	124.40000000	94.10000000	134.20000000	153.60000000	124.40000000
101	1036.50000000	550.50000000	103.70000000	55.10000000	1.96000000	1.70000000	0.87475452	101.98000000	5.77989895	8.29793952	1.80000000	0.90000000	1.70000000	1.58145700	151.40000000	110.00000000	164.70000000	192.00000000	151.50000000
102	652.50000000	552.50000000	65.20000000	55.20000000	0.25000000	0.45026808	0.31572137	66.20000000	1.24852812	2.42502440	0.40000000	0.30000000	0.50000000	0.55851919	118.90000000	91.40000000	127.90000000	143.90000000	118.80000000
103	108.50000000	545.50000000	10.90000000	54.60000000	3.30000000	2.40000000	1.30000000	54.77000000	8.94974738	11.88219057	2.50000000	1.30000000	2.40000000	2.05066508	81.40000000	60.20000000	89.00000000	98.10000000	81.40000000
104	392.50000000	544.50000000	39.20000000	54.50000000	0.01000000	0.00000000	0.00000000	0.00000000	0.00000000	0.00000000	0.00000000	0.00000000	0.00000000	0.11283792	113.00000000	91.00000000	119.00000000	141.00000000	113.10000000
105	1056.50000000	538.50000000	105.70000000	53.90000000	0.67000000	0.73683658	0.68831162	174.80000000	2.58994948	4.47853287	0.70000000	0.60000000	0.70000000	0.92263296	161.50000000	117.00000000	176.20000000	203.10000000	161.50000000
106	60.50000000	528.50000000	6.10000000	52.90000000	2.03000000	2.38593616	1.00000000	27.10000000	5.86274166	11.08765825	2.10000000	0.90000000	2.40000000	1.60623329	155.00000000	115.10000000	167.80000000	194.10000000	155.00000000
107	740.50000000	536.50000000	74.00000000	53.70000000	0.68000000	0.80000000	0.70000000	11.41000000	2.67279218	4.71762642	0.80000000	0.60000000	0.80000000	0.93048530	86.80000000	64.90000000	94.40000000	105.40000000	86.80000000
108	1019.50000000	526.50000000	102.00000000	52.70000000	0.02000000	0.00000000	0.00000000	0.00000000	0.28284271	0.28284271	0.10000000	0.00000000	0.00000000	0.15957691	112.00000000	86.00000000	119.50000000	141.50000000	112.00000000
109	1027.50000000	526.50000000	102.80000000	52.70000000	0.02000000	0.00000000	0.00000000	0.00000000	0.28284271	0.28284271	0.10000000	0.00000000	0.00000000	0.15957691	112.00000000	85.50000000	119.50000000	141.00000000	111.80000000
110	1097.50000000	520.50000000	109.80000000	52.10000000	0.72000000	0.90000000	0.70000000	175.43000000	3.55563489	5.04620245	0.80000000	0.80000000	0.90000000	0.95746147	147.60000000	106.40000000	159.80000000	192.70000000	147.60000000
111	294.50000000	518.50000000	29.50000000	51.90000000	1.63000000	1.27642841	1.00000000	176.46000000	4.81421354	7.17799856	1.10000000	1.00000000	1.30000000	1.44209035	157.60000000	117.70000000	171.10000000	192.70000000	157.60000000
112	996.50000000	520.50000000	99.70000000	52.10000000	3.02000000	2.60000000	1.50000000	119.60000000	11.95391039	13.11338020	2.20000000	1.80000000	2.60000000	1.96201882	79.80000000	59.20000000	87.00000000	97.00000000	79.80000000
113	684.50000000	512.50000000	68.50000000	51.20000000	1.88000000	1.70000000	1.20000000	131.22000000	7.89116873	9.17845217	1.70000000	1.30000000	1.70000000	1.54715557	87.20000000	65.70000000	95.30000000	102.60000000	87.30000000
114	1028.50000000	510.50000000	102.90000000	51.10000000	5.05000000	2.90000000	2.30000000	127.14000000	19.62081506	16.39070091	2.60000000	2.40000000	2.90000000	2.53485938	83.90000000	61.80000000	91.70000000	102.20000000	84.00000000
115	401.50000000	504.50000000	40.20000000	50.50000000	0.47000000	0.70000000	0.51451206	54.71000000	1.84852812	3.83778425	0.60000000	0.50000000	0.70000000	0.76945201	150.10000000	114.50000000	161.80000000	183.00000000	150.10000000
116	608.50000000	502.50000000	60.90000000	50.20000000	0.21000000	0.44588599	0.20929585	56.31000000	1.10710677	2.12597991	0.40000000	0.20000000	0.40000000	0.51708829	120.20000000	94.40000000	128.90000000	142.30000000	120.10000000
117	833.50000000	497.50000000	83.40000000	49.80000000	0.48000000	0.69968848	0.50000000	23.46000000	2.07279218	3.79508327	0.60000000	0.50000000	0.70000000	0.78176402	154.10000000	114.80000000	166.70000000	192.60000000	154.10000000
118	710.50000000	489.50000000	71.00000000	49.00000000	2.75000000	2.62388306	2.30000000	157.04000000	19.14802289	15.48557178	2.30000000	2.20000000	2.60000000	1.86974035	84.10000000	62.70000000	91.80000000	100.50000000	84.10000000
119	1069.50000000	489.50000000	107.00000000	49.00000000	1.43000000	1.31867228	1.03971977	10.22000000	6.08700572	7.43504387	1.20000000	0.90000000	1.30000000	1.35024360	88.00000000	62.00000000	96.90000000	109.80000000	87.90000000
120	640.50000000	478.50000000	64.00000000	47.90000000	0.67000000	0.67297654	0.50268970	0.15000000	1.98994948	3.71286166	0.60000000	0.50000000	0.70000000	0.92476622	90.60000000	67.30000000	98.90000000	109.20000000	90.60000000
121	760.50000000	465.50000000	76.00000000	46.60000000	0.20000000	0.42750120	0.30036125	135.00000000	1.04852812	2.30412319	0.30000000	0.30000000	0.40000000	0.50462650	113.00000000	84.20000000	123.20000000	137.00000000	113.10000000
122	957.50000000	460.50000000	95.80000000	46.10000000	1.15000000	1.10000000	0.75670714	87.31000000	3.58994948	5.88297620	1.10000000	0.60000000	1.10000000	1.21080320	160.50000000	118.20000000	174.40000000	200.50000000	160.60000000
123	368.50000000	459.50000000	36.90000000	46.00000000	0.92000000	0.95712490	0.60047784	97.09000000	2.41421353	4.95770357	0.80000000	0.60000000	1.00000000	1.08230328	158.20000000	117.20000000	172.30000000	193.20000000	158.20000000
124	582.50000000	457.50000000	58.20000000	45.80000000	0.02000000	0.00000000	0.00000000	0.00000000	0.28284271	0.28284271	0.10000000	0.00000000	0.00000000	0.15957691	112.00000000	87.00000000	121.00000000	130.00000000	111.90000000
125	698.50000000	456.50000000	69.90000000	45.70000000	0.95000000	1.60000000	0.80000000	72.70000000	6.13553383	7.75075857	1.50000000	0.90000000	1.60000000	1.09922897	86.20000000	64.30000000	94.10000000	103.60000000	86.30000000
126	1231.50000000	451.50000000	123.20000000	45.20000000	1.13000000	1.10000000	0.65507712	112.47000000	3.61421354	5.60268468	1.10000000	0.60000000	1.10000000	1.19749156	133.70000000	96.90000000	143.60000000	178.80000000	133.70000000
127	1052.50000000	441.50000000	105.20000000	44.20000000	1.30000000	1.20000000	0.80000000	18.56000000	4.01421354	6.34617584	1.20000000	0.80000000	1.20000000	1.28807184	156.80000000	113.10000000	171.60000000	195.10000000	156.80000000
128	771.50000000	441.50000000	77.20000000	44.20000000	0.51000000	0.53535013	0.43119164	90.49000000	1.70710677	3.04530267	0.50000000	0.40000000	0.50000000	0.80265759	132.10000000	101.00000000	141.10000000	167.30000000	132.10000000
129	138.50000000	414.50000000	13.90000000	41.50000000	1.60000000	2.88188381	0.50000000	46.51000000	6.89116873	11.98927904	2.80000000	0.50000000	2.90000000	1.42878529	120.00000000	93.60000000	129.40000000	140.30000000	120.00000000
130	1266.50000000	419.50000000	126.70000000	42.00000000	1.41000000	1.45909472	0.60350647	15.30000000	3.67279218	6.76173197	1.40000000	0.60000000	1.50000000	1.33809309	141.90000000	102.90000000	152.50000000	189.20000000	141.90000000
131	333.50000000	418.50000000	33.40000000	41.90000000	1.11000000	1.00000000	0.68747106	38.24000000	2.75563487	5.34690546	0.80000000	0.70000000	1.00000000	1.18614067	162.50000000	120.30000000	177.30000000	197.50000000	162.60000000
132	1242.50000000	411.50000000	124.20000000	41.20000000	2.09000000	2.10000000	0.70000000	161.07000000	6.06274166	9.35542495	2.10000000	0.70000000	2.10000000	1.63100006	137.10000000	100.50000000	147.40000000	180.10000000	137.10000000
133	593.50000000	417.50000000	59.40000000	41.80000000	2.47000000	2.30000000	2.00000000	126.92000000	12.81248903	13.52529198	2.10000000	2.00000000	2.30000000	1.77345004	82.10000000	62.00000000	89.60000000	96.40000000	82.10000000
134	517.50000000	413.50000000	51.80000000	41.40000000	2.19000000	1.50000000	0.91600637	85.15000000	4.67279217	7.70138725	1.50000000	0.70000000	1.50000000	1.66937205	172.40000000	130.90000000	187.40000000	203.90000000	172.40000000
135	713.50000000	415.50000000	71.40000000	41.60000000	0.50000000	0.60000000	0.45520363	62.00000000	1.70710677	3.33064361	0.50000000	0.40000000	0.60000000	0.79388511	131.60000000	97.70000000	142.40000000	165.60000000	131.70000000
136	732.50000000	409.50000000	73.20000000	41.00000000	0.21000000	0.49183207	0.37615111	10.36000000	1.58994948	2.73897190	0.40000000	0.30000000	0.50000000	0.51178468	120.70000000	92.70000000	130.10000000	145.60000000	120.70000000
137	482.50000000	408.50000000	48.20000000	40.90000000	2.45000000	1.38040590	1.23117523	46.78000000	4.91126978	8.21122282	1.40000000	1.20000000	1.40000000	1.76459005	85.90000000	63.40000000	93.90000000	104.20000000	86.00000000
138	117.50000000	395.50000000	11.80000000	39.60000000	2.27000000	1.50000000	1.10000000	66.98000000	5.74558436	8.21654502	1.40000000	1.10000000	1.50000000	1.69843556	181.10000000	144.90000000	194.80000000	205.40000000	181.10000000
139	1223.50000000	395.50000000	122.40000000	39.60000000	2.28000000	1.70000000	0.86281395	71.60000000	4.95563489	8.26758125	1.70000000	0.80000000	1.70000000	1.70381518	155.10000000	112.00000000	167.90000000	202.60000000	155.10000000
140	927.50000000	367.50000000	92.80000000	36.80000000	12.86000000	15.44235687	0.80000000	67.77000000	37.92203431	62.08547144	14.30000000	0.90000000	15.40000000	4.04697367	142.80000000	104.20000000	154.30000000	185.40000000	142.90000000
141	734.50000000	389.50000000	73.50000000	39.00000000	0.13000000	1.20434361	0.10102915	90.03000000	0.68284271	4.87443990	0.20000000	0.10000000	1.20000000	0.39894228	120.20000000	96.60000000	128.80000000	138.60000000	120.30000000
142	438.50000000	387.50000000	43.90000000	38.80000000	0.25000000	0.52752967	0.36321127	90.75000000	1.73137083	2.82220361	0.50000000	0.30000000	0.50000000	0.56579926	124.20000000	95.10000000	133.90000000	151.60000000	124.30000000
143	669.50000000	383.50000000	67.00000000	38.40000000	0.63000000	0.70000000	0.54133978	92.92000000	2.18994948	3.91572731	0.70000000	0.50000000	0.70000000	0.89663807	154.00000000	116.10000000	166.50000000	189.60000000	154.00000000
144	216.50000000	384.50000000	21.70000000	38.50000000	0.13000000	0.43207750	0.20965073	81.79000000	1.18994948	2.07706750	0.40000000	0.20000000	0.40000000	0.40370120	118.50000000	90.00000000	128.20000000	144.20000000	118.60000000
145	381.50000000	383.50000000	38.10000000	38.40000000	0.52000000	0.70000000	0.52863665	48.02000000	2.21421353	3.87867044	0.60000000	0.50000000	0.70000000	0.81368579	149.40000000	115.20000000	160.80000000	180.40000000	149.40000000
146	502.50000000	380.50000000	50.20000000	38.10000000	0.48000000	0.70000000	0.50019279	43.00000000	2.37989895	3.79668770	0.70000000	0.40000000	0.70000000	0.78408725	114.30000000	87.30000000	123.40000000	137.40000000	114.20000000
147	576.50000000	371.50000000	57.70000000	37.10000000	0.65000000	0.61273994	0.53436279	56.06000000	1.90710677	3.60793673	0.50000000	0.50000000	0.60000000	0.91147617	146.30000000	111.00000000	157.70000000	180.20000000	146.30000000
148	598.50000000	367.50000000	59.90000000	36.80000000	2.07000000	1.94100609	1.00000000	131.41000000	7.01837653	9.47746803	1.50000000	1.40000000	1.90000000	1.62179502	90.00000000	68.30000000	97.80000000	106.80000000	90.00000000
149	605.50000000	362.50000000	60.60000000	36.20000000	2.97000000	2.49471550	1.20000000	140.45000000	9.91959580	11.96644835	2.60000000	1.20000000	2.50000000	1.94436160	88.20000000	67.00000000	95.80000000	104.70000000	88.20000000
150	1263.50000000	361.50000000	126.40000000	36.10000000	1.08000000	1.02743788	0.70000000	73.65000000	2.84852812	5.47576332	0.90000000	0.60000000	1.00000000	1.17264603	146.00000000	105.10000000	157.40000000	195.20000000	146.00000000
151	432.50000000	358.50000000	43.20000000	35.90000000	0.75000000	0.63686566	0.50000000	31.83000000	1.70710677	3.58452164	0.50000000	0.50000000	0.60000000	0.97503104	128.10000000	94.50000000	138.80000000	161.10000000	128.10000000
152	831.50000000	355.50000000	83.20000000	35.60000000	0.59000000	0.74628329	0.54869165	152.69000000	2.55563488	4.09199756	0.70000000	0.60000000	0.70000000	0.86427264	148.40000000	109.60000000	160.70000000	186.80000000	148.40000000
153	1102.50000000	345.50000000	110.20000000	34.60000000	0.93000000	0.91685457	0.70000000	161.21000000	3.35563489	5.10236740	0.90000000	0.60000000	0.90000000	1.08875434	142.00000000	102.00000000	153.20000000	189.40000000	142.00000000
154	1166.50000000	337.50000000	116.70000000	33.80000000	1.38000000	1.10104370	0.80000000	47.70000000	2.96568542	6.00980579	0.90000000	0.70000000	1.10000000	1.32554539	169.00000000	124.10000000	184.20000000	208.60000000	169.00000000
155	726.50000000	337.50000000	72.70000000	33.80000000	0.01000000	0.00000000	0.00000000	0.00000000	0.00000000	0.00000000	0.00000000	0.00000000	0.00000000	0.11283792	110.00000000	86.00000000	118.00000000	131.00000000	109.90000000
156	833.50000000	334.50000000	83.40000000	33.50000000	1.93000000	1.82522297	1.00000000	159.56000000	6.72548331	9.06604419	1.70000000	1.20000000	1.80000000	1.56637563	84.10000000	63.00000000	91.70000000	101.20000000	84.20000000
157	68.50000000	326.50000000	6.90000000	32.60000000	0.60000000	0.66351671	0.50000000	32.90000000	1.76568542	3.67336646	0.50000000	0.50000000	0.70000000	0.87403874	136.90000000	105.10000000	146.60000000	169.50000000	136.80000000
158	119.50000000	309.50000000	12.00000000	31.00000000	1.35000000	1.00406809	0.72910933	18.99000000	3.15563489	5.47925127	1.00000000	0.70000000	1.00000000	1.31105812	149.30000000	107.90000000	163.00000000	187.70000000	149.30000000
159	1103.50000000	311.50000000	110.40000000	31.20000000	0.33000000	0.58917947	0.60000000	71.16000000	1.98994948	3.73599481	0.50000000	0.50000000	0.60000000	0.64820448	145.30000000	107.80000000	156.00000000	189.40000000	145.40000000
160	539.50000000	301.50000000	54.00000000	30.20000000	0.49000000	0.61961408	0.50000000	49.47000000	1.98994948	3.52741513	0.60000000	0.40000000	0.60000000	0.78784788	140.00000000	104.80000000	151.80000000	171.30000000	140.00000000
161	762.50000000	289.50000000	76.20000000	29.00000000	1.30000000	1.10000000	0.80000000	110.57000000	3.13137083	6.00628745	1.00000000	0.70000000	1.10000000	1.28655020	160.90000000	118.30000000	175.50000000	197.90000000	161.00000000
162	633.50000000	287.50000000	63.40000000	28.80000000	0.73000000	0.80000000	0.70000000	156.81000000	2.75563489	4.71762642	0.80000000	0.70000000	0.80000000	0.96628619	84.90000000	63.00000000	93.00000000	101.20000000	84.90000000
163	918.50000000	274.50000000	91.90000000	27.50000000	1.56000000	1.37279501	0.90000000	99.70000000	4.81421354	7.21765321	1.30000000	0.90000000	1.40000000	1.40740788	161.10000000	118.00000000	175.50000000	200.30000000	161.10000000
164	515.50000000	269.50000000	51.60000000	27.00000000	1.77000000	1.20219278	0.73763394	178.67000000	4.24852812	6.18184247	1.10000000	0.70000000	1.20000000	1.50242199	159.30000000	117.10000000	174.10000000	193.90000000	159.30000000
165	902.50000000	266.50000000	90.20000000	26.70000000	0.11000000	0.00000000	0.00000000	0.00000000	1.36568542	1.36568542	0.60000000	0.10000000	0.00000000	0.37424103	135.20000000	103.00000000	146.50000000	161.80000000	135.20000000
166	1015.50000000	261.50000000	101.60000000	26.20000000	0.14000000	0.33270497	0.27880993	54.54000000	0.90710677	1.92486315	0.30000000	0.20000000	0.30000000	0.41459298	114.10000000	83.80000000	121.80000000	153.60000000	114.00000000
167	803.50000000	252.50000000	80.40000000	25.20000000	0.63000000	0.70000000	0.61270666	27.94000000	2.53137083	4.12855002	0.70000000	0.50000000	0.70000000	0.89562320	149.60000000	110.10000000	162.10000000	188.80000000	149.60000000
168	966.50000000	247.50000000	96.70000000	24.80000000	1.58000000	1.22655420	0.80736370	153.96000000	4.27279218	6.45777824	1.10000000	0.90000000	1.20000000	1.41916647	160.10000000	117.70000000	174.20000000	199.30000000	160.10000000
169	255.50000000	238.50000000	25.60000000	23.90000000	1.28000000	0.97800608	0.62278080	84.76000000	2.56568542	5.09112369	0.90000000	0.50000000	1.00000000	1.27411947	160.90000000	119.10000000	175.20000000	197.40000000	160.90000000
170	400.50000000	232.50000000	40.10000000	23.20000000	0.28000000	0.50819678	0.33272498	65.21000000	1.38994948	2.67067011	0.40000000	0.30000000	0.50000000	0.59708213	115.50000000	87.40000000	124.40000000	143.70000000	115.50000000
171	1253.50000000	228.50000000	125.40000000	22.90000000	1.05000000	1.20000000	0.70000000	41.67000000	3.73137083	6.07282316	0.90000000	0.90000000	1.20000000	1.15674501	146.90000000	105.50000000	158.90000000	194.00000000	146.90000000
172	322.50000000	229.50000000	32.20000000	23.00000000	0.42000000	0.60000000	0.41642814	70.95000000	1.64852812	3.21929576	0.50000000	0.40000000	0.60000000	0.73127328	134.90000000	103.10000000	145.70000000	163.30000000	135.00000000
173	949.50000000	229.50000000	95.00000000	23.00000000	0.58000000	0.80000000	0.80000000	20.97000000	2.95563489	5.02654825	0.70000000	0.70000000	0.80000000	0.86069386	147.40000000	107.80000000	159.80000000	187.90000000	147.40000000
174	854.50000000	222.50000000	85.50000000	22.20000000	0.01000000	0.00000000	0.00000000	0.00000000	0.00000000	0.00000000	0.00000000	0.00000000	0.00000000	0.11283792	113.00000000	88.00000000	121.00000000	136.00000000	112.80000000
175	98.50000000	213.50000000	9.90000000	21.40000000	0.50000000	0.65212073	0.42217560	87.19000000	1.76568542	3.41376920	0.60000000	0.40000000	0.70000000	0.79788456	134.80000000	100.10000000	145.30000000	171.70000000	134.80000000
176	246.50000000	206.50000000	24.70000000	20.70000000	0.01000000	0.00000000	0.00000000	0.00000000	0.00000000	0.00000000	0.00000000	0.00000000	0.00000000	0.11283792	110.00000000	82.00000000	119.00000000	138.00000000	110.10000000
177	982.50000000	203.50000000	98.20000000	20.40000000	0.42000000	0.72803388	0.53733044	171.93000000	1.76568542	3.99786457	0.50000000	0.50000000	0.70000000	0.73127328	146.00000000	105.10000000	157.30000000	195.10000000	146.00000000
178	146.50000000	197.50000000	14.70000000	19.80000000	1.68000000	1.70000000	0.82712641	165.12000000	6.06274166	8.17781386	1.80000000	0.90000000	1.70000000	1.46254656	157.10000000	114.20000000	171.50000000	195.30000000	157.10000000
179	470.50000000	196.50000000	47.10000000	19.70000000	1.76000000	1.38468580	0.92081270	57.95000000	3.93137083	7.31642782	1.10000000	1.10000000	1.40000000	1.49773715	155.50000000	114.20000000	169.30000000	193.30000000	155.50000000
180	852.50000000	196.50000000	85.20000000	19.70000000	1.73000000	1.70000000	0.84040909	117.34000000	6.06274165	8.21105298	1.60000000	1.00000000	1.70000000	1.48465563	151.00000000	108.20000000	164.30000000	195.20000000	151.00000000
181	1125.50000000	199.50000000	112.60000000	20.00000000	0.61000000	0.70000000	0.56732712	171.85000000	2.92132031	3.99234157	0.70000000	0.60000000	0.70000000	0.88309638	78.70000000	58.20000000	85.20000000	98.90000000	78.70000000
182	250.50000000	189.50000000	25.10000000	18.90000000	2.49000000	1.90000000	1.17293406	64.83000000	5.60416300	9.78949553	1.90000000	1.10000000	1.90000000	1.78087730	153.20000000	113.10000000	166.20000000	191.80000000	153.20000000
183	13.50000000	189.50000000	1.40000000	18.90000000	0.45000000	0.70000000	0.41766133	45.96000000	1.93137083	3.56748078	0.60000000	0.40000000	0.70000000	0.75332666	127.20000000	98.20000000	136.20000000	156.70000000	127.20000000
184	352.50000000	189.50000000	35.20000000	18.90000000	0.63000000	0.61338997	0.60000000	11.90000000	1.70710677	3.81209306	0.50000000	0.50000000	0.60000000	0.89562320	146.00000000	109.90000000	157.50000000	181.60000000	146.00000000
185	732.50000000	171.50000000	73.20000000	17.20000000	0.01000000	0.00000000	0.00000000	0.00000000	0.00000000	0.00000000	0.00000000	0.00000000	0.00000000	0.11283792	111.00000000	84.00000000	120.00000000	132.00000000	110.60000000
186	111.50000000	165.50000000	11.20000000	16.60000000	1.28000000	1.05511770	0.70000000	80.02000000	3.21421354	5.57044314	0.90000000	0.60000000	1.10000000	1.27827648	162.90000000	123.00000000	176.80000000	196.40000000	162.90000000
187	491.50000000	166.50000000	49.20000000	16.70000000	2.15000000	1.80670834	1.40000000	156.44000000	8.92548332	10.11472545	2.00000000	1.40000000	1.80000000	1.65463263	82.80000000	61.70000000	90.50000000	98.10000000	82.80000000
188	258.50000000	154.50000000	25.90000000	15.50000000	1.65000000	2.18749771	0.70000000	69.61000000	5.80416300	9.68390462	2.00000000	0.70000000	2.20000000	1.44894118	136.90000000	103.00000000	148.20000000	167.60000000	136.90000000
189	1091.50000000	155.50000000	109.20000000	15.60000000	1.35000000	0.87989626	0.70000000	51.80000000	2.38994946	4.97949169	0.70000000	0.70000000	0.90000000	1.31105812	143.50000000	104.40000000	154.90000000	187.10000000	143.50000000
190	512.50000000	151.50000000	51.20000000	15.20000000	1.46000000	1.23273458	0.77237735	8.02000000	3.53137083	6.38253415	1.10000000	0.70000000	1.20000000	1.36459255	161.10000000	119.20000000	175.20000000	198.10000000	161.10000000
191	1096.50000000	128.50000000	109.70000000	12.90000000	1.49000000	1.10000000	0.84566097	171.21000000	3.53137083	6.13861474	1.10000000	0.70000000	1.10000000	1.37504935	149.10000000	106.50000000	162.10000000	193.60000000	149.10000000
192	1112.50000000	129.50000000	111.20000000	13.00000000	0.22000000	1.26120129	0.20000000	102.15000000	1.22426406	5.21912320	0.50000000	0.20000000	1.30000000	0.52925674	142.00000000	101.90000000	153.10000000	189.20000000	141.90000000
193	728.50000000	123.50000000	72.90000000	12.40000000	3.22000000	2.30000000	1.90000000	153.12000000	10.69116873	13.22462608	2.00000000	1.70000000	2.30000000	2.02587734	85.40000000	63.20000000	93.40000000	103.40000000	85.50000000
194	1119.50000000	117.50000000	112.00000000	11.80000000	1.01000000	0.90000000	0.63779726	157.93000000	2.75563489	4.86630963	0.80000000	0.60000000	0.90000000	1.13240192	148.00000000	106.20000000	160.30000000	194.30000000	148.00000000
195	722.50000000	113.50000000	72.20000000	11.40000000	6.13000000	2.60000000	2.30000000	102.10000000	13.62670257	15.40823307	2.50000000	2.20000000	2.60000000	2.79386961	85.60000000	63.00000000	93.70000000	103.60000000	85.70000000
196	681.50000000	105.50000000	68.20000000	10.60000000	0.01000000	0.00000000	0.00000000	0.00000000	0.00000000	0.00000000	0.00000000	0.00000000	0.00000000	0.11283792	111.00000000	89.00000000	119.00000000	130.00000000	111.30000000
197	1112.50000000	104.50000000	111.20000000	10.50000000	0.41000000	0.73726358	0.50490861	90.60000000	2.44852812	3.93661030	0.70000000	0.40000000	0.70000000	0.72471464	147.90000000	106.80000000	160.10000000	192.40000000	147.80000000
198	731.50000000	89.50000000	73.20000000	9.00000000	2.84000000	2.01574154	2.00000000	40.76000000	10.88111820	12.61587258	2.00000000	1.70000000	2.00000000	1.90015500	89.50000000	65.20000000	98.00000000	109.40000000	89.50000000
199	742.50000000	89.50000000	74.20000000	9.00000000	4.11000000	2.10000000	1.90000000	37.75000000	9.89116873	12.57422582	1.80000000	1.80000000	2.10000000	2.28675080	85.80000000	62.70000000	94.00000000	104.20000000	85.80000000
200	282.50000000	81.50000000	28.20000000	8.20000000	1.63000000	1.30489998	1.00000000	13.58000000	4.63847760	7.27276926	1.30000000	1.00000000	1.30000000	1.43840685	170.50000000	125.00000000	187.10000000	204.50000000	170.50000000
201	1054.50000000	82.50000000	105.50000000	8.20000000	0.75000000	0.85916834	0.70000000	140.63000000	3.07279218	4.91104188	0.70000000	0.70000000	0.90000000	0.97898015	147.30000000	106.40000000	159.80000000	190.10000000	147.30000000
202	693.50000000	77.50000000	69.40000000	7.80000000	1.80000000	1.62632542	1.16427412	104.19000000	8.68111820	8.82711660	1.70000000	1.20000000	1.60000000	1.51587015	82.40000000	60.30000000	90.10000000	100.90000000	82.40000000
203	521.50000000	77.50000000	52.20000000	7.80000000	0.72000000	1.00000000	0.70000000	32.15000000	3.89705625	5.38236898	1.00000000	0.80000000	1.00000000	0.95746147	86.00000000	65.60000000	93.50000000	100.40000000	86.00000000
204	211.50000000	73.50000000	21.20000000	7.40000000	0.81000000	0.74429498	0.80000000	3.38000000	2.58994946	4.85312403	0.70000000	0.70000000	0.70000000	1.01240201	161.50000000	120.10000000	175.90000000	195.70000000	161.50000000
205	709.50000000	60.50000000	71.00000000	6.10000000	0.12000000	0.00000000	0.00000000	0.00000000	1.42426406	1.42426406	0.60000000	0.10000000	0.00000000	0.39088201	135.50000000	104.40000000	147.00000000	157.60000000	135.50000000
206	62.50000000	42.50000000	6.20000000	4.20000000	2.07000000	1.67160110	0.80000000	20.07000000	4.41421354	8.00810697	1.60000000	0.80000000	1.70000000	1.62384701	170.30000000	127.30000000	185.30000000	205.70000000	170.30000000
207	1109.50000000	41.50000000	111.00000000	4.20000000	0.03000000	0.00000000	0.00000000	0.00000000	0.34142135	0.34142135	0.10000000	0.10000000	0.00000000	0.19544100	120.70000000	84.70000000	133.30000000	149.70000000	120.60000000
208	300.50000000	36.50000000	30.10000000	3.70000000	0.22000000	0.80000000	0.28772974	108.97000000	2.15563488	3.60947184	0.80000000	0.20000000	0.80000000	0.52925674	114.20000000	86.30000000	122.90000000	143.00000000	114.30000000
209	369.50000000	33.50000000	37.00000000	3.40000000	2.13000000	1.74073086	1.17964802	91.85000000	8.96396091	9.25950312	1.80000000	1.10000000	1.70000000	1.64508134	77.80000000	58.00000000	84.90000000	93.90000000	77.90000000
210	306.50000000	26.50000000	30.70000000	2.70000000	0.33000000	0.94825058	0.42748094	136.74000000	2.35563488	4.47825457	0.80000000	0.40000000	0.90000000	0.65038333	117.40000000	89.00000000	126.20000000	146.60000000	117.40000000
211	721.50000000	24.50000000	72.20000000	2.50000000	1.60000000	1.60954800	0.90000000	138.68000000	6.18406197	8.04234538	1.60000000	0.90000000	1.60000000	1.42729929	84.60000000	63.60000000	91.70000000	102.90000000	84.60000000
212	1167.50000000	23.50000000	116.80000000	2.40000000	0.21000000	0.56524510	0.30870020	17.14000000	1.14142135	2.80505276	0.30000000	0.30000000	0.60000000	0.51708829	132.60000000	102.40000000	139.80000000	174.40000000	132.50000000
213	331.50000000	18.50000000	33.10000000	1.90000000	0.48000000	0.84144077	0.50000000	62.06000000	2.47279218	4.28279876	0.80000000	0.60000000	0.80000000	0.78176402	87.30000000	65.60000000	94.70000000	106.90000000	87.40000000
214	1254.50000000	13.50000000	125.50000000	1.40000000	1.17000000	1.01810713	0.90000000	21.13000000	3.75563488	6.03162437	0.90000000	0.90000000	1.00000000	1.22052868	161.90000000	122.20000000	174.90000000	199.30000000	161.90000000
215	400.50000000	13.00000000	40.10000000	1.30000000	2.15000000	2.00000000	1.17934761	109.01000000	6.75979789	10.15528793	2.10000000	1.20000000	2.00000000	1.65581072	84.90000000	63.30000000	92.30000000	103.80000000	84.90000000
216	423.50000000	10.50000000	42.40000000	1.10000000	0.02000000	0.00000000	0.00000000	0.00000000	0.28284271	0.28284271	0.10000000	0.00000000	0.00000000	0.15957691	112.50000000	88.00000000	119.50000000	139.00000000	112.30000000

#3
liczenie
obiektów (w)	udział punktów	pole obrazu(mm²)
	24	100.00	12288.0000
nr.	x(pix.):	y(pix.):	x(mm):	y(mm):	powierzchnia:(mm²)	długość:(mm)	szerokość:(mm)	kąt:(°)	obwód:(mm)	obwód C.:(mm)	średnica Fereta H(mm)	średnica Fereta V(mm)	średn. Martina:(mm)	średn. sitowa:(mm)	średnia jaskrawość	R	G	B	Y
1	973.50000000	882.50000000	97.40000000	88.20000000	1.58000000	1.35833225	0.85139513	28.56000000	5.00416300	7.03370745	1.40000000	0.90000000	1.40000000	1.41610462	162.20000000	125.00000000	176.90000000	184.90000000	162.30000000
2	145.50000000	827.50000000	14.60000000	82.80000000	0.87000000	0.96051121	0.64892893	41.24000000	3.32132030	5.10369358	1.00000000	0.60000000	1.00000000	1.05083107	167.80000000	132.60000000	180.80000000	193.50000000	167.80000000
3	1222.50000000	766.50000000	122.20000000	76.70000000	1.20000000	1.39726877	0.81810522	5.77000000	3.93137083	7.07923691	1.30000000	0.70000000	1.40000000	1.23550506	158.20000000	118.90000000	172.90000000	186.10000000	158.30000000
4	328.50000000	720.50000000	32.90000000	72.00000000	2.66000000	2.00000000	1.10000000	55.71000000	6.93553383	9.94525880	2.00000000	1.00000000	2.00000000	1.83970166	182.30000000	151.70000000	192.80000000	208.50000000	182.30000000
5	943.50000000	699.50000000	94.40000000	70.00000000	0.78000000	1.10000000	0.62475257	84.95000000	3.33137083	5.52181721	1.10000000	0.50000000	1.10000000	0.99513689	174.60000000	144.80000000	186.20000000	193.40000000	174.60000000
6	718.50000000	675.50000000	71.90000000	67.50000000	1.72000000	1.28792572	0.80000000	37.63000000	3.53137082	6.64927547	1.10000000	0.90000000	1.30000000	1.47985540	169.20000000	132.70000000	183.10000000	193.60000000	169.20000000
7	205.50000000	621.50000000	20.60000000	62.20000000	2.16000000	2.13512840	0.89623966	3.78000000	5.86274166	9.92532416	2.10000000	0.90000000	2.10000000	1.65693173	174.90000000	138.90000000	187.60000000	203.40000000	174.80000000
8	851.50000000	616.50000000	85.20000000	61.70000000	0.84000000	0.72791486	0.60000000	102.63000000	2.13137082	4.18145065	0.60000000	0.60000000	0.70000000	1.03171133	144.60000000	119.60000000	156.00000000	151.10000000	144.60000000
9	1214.50000000	588.50000000	121.50000000	58.90000000	1.01000000	1.70000000	0.63930049	52.24000000	4.40416300	7.73199094	1.70000000	0.50000000	1.70000000	1.13159852	137.30000000	107.70000000	148.30000000	158.80000000	137.30000000
10	408.50000000	549.50000000	40.90000000	55.00000000	0.74000000	0.86396360	0.66717753	135.18000000	2.53137083	4.83010619	0.70000000	0.70000000	0.90000000	0.96973107	179.80000000	145.70000000	192.80000000	201.40000000	179.70000000
11	849.50000000	475.50000000	85.00000000	47.60000000	0.84000000	1.10115213	0.69866781	97.89000000	3.07279218	5.72521501	1.20000000	0.50000000	1.10000000	1.03417659	153.00000000	121.70000000	164.50000000	175.40000000	153.00000000
12	822.50000000	453.50000000	82.20000000	45.40000000	0.21000000	0.40988965	0.40000000	39.26000000	1.22426406	2.54443822	0.30000000	0.30000000	0.40000000	0.51462008	125.80000000	107.20000000	134.60000000	129.50000000	125.80000000
13	1156.50000000	432.50000000	115.70000000	43.20000000	2.95000000	1.82353458	1.10000000	50.69000000	5.49705625	9.32573880	1.50000000	1.30000000	1.80000000	1.93688135	195.70000000	162.90000000	207.10000000	222.90000000	195.70000000
14	581.50000000	406.50000000	58.20000000	40.70000000	0.72000000	0.71155753	0.70000000	87.03000000	2.27279217	4.43461309	0.70000000	0.60000000	0.70000000	0.95413116	157.90000000	126.20000000	170.00000000	179.10000000	157.90000000
15	815.50000000	361.50000000	81.60000000	36.10000000	0.77000000	1.39188633	0.50000000	41.50000000	3.01421354	6.27863073	1.20000000	0.50000000	1.40000000	0.98692870	128.90000000	106.30000000	137.50000000	143.10000000	128.80000000
16	69.50000000	288.50000000	7.00000000	28.90000000	2.18000000	1.81112900	1.14111977	131.58000000	5.15563489	9.39457842	1.70000000	1.00000000	1.80000000	1.66720721	137.20000000	107.90000000	146.10000000	168.20000000	137.20000000
17	78.50000000	239.50000000	7.90000000	24.00000000	1.31000000	1.20000000	0.80000000	72.08000000	3.49705625	6.34617584	1.10000000	0.70000000	1.20000000	1.29272074	160.30000000	125.50000000	172.90000000	186.30000000	160.30000000
18	181.50000000	151.50000000	18.20000000	15.20000000	2.39000000	2.02342892	1.24765635	77.81000000	6.76984841	10.42143237	2.10000000	1.10000000	2.00000000	1.74260618	155.70000000	118.90000000	167.50000000	191.40000000	155.70000000
19	418.50000000	148.50000000	41.90000000	14.90000000	1.60000000	2.11260738	0.69187083	58.14000000	4.57989895	9.38552524	1.80000000	0.70000000	2.10000000	1.42892030	151.20000000	116.10000000	162.30000000	186.70000000	151.20000000
20	181.50000000	124.50000000	18.20000000	12.50000000	1.76000000	1.74165649	0.81812172	15.07000000	5.66274166	8.30567664	1.80000000	0.80000000	1.70000000	1.49530937	133.40000000	101.10000000	143.00000000	168.40000000	133.40000000
21	1062.50000000	111.50000000	106.20000000	11.20000000	0.33000000	0.42531838	0.34582591	55.49000000	1.16568542	2.42906139	0.40000000	0.30000000	0.40000000	0.64492241	127.90000000	102.00000000	136.40000000	151.30000000	127.80000000
22	230.50000000	106.50000000	23.10000000	10.70000000	1.28000000	1.10000000	0.70515490	33.18000000	2.81421353	5.73909777	1.10000000	0.60000000	1.10000000	1.27661530	144.60000000	107.30000000	156.10000000	183.30000000	144.60000000
23	332.50000000	31.50000000	33.20000000	3.20000000	0.30000000	0.56768513	0.36776395	86.31000000	1.50710677	2.97245418	0.50000000	0.30000000	0.60000000	0.62214534	116.10000000	96.40000000	122.40000000	136.30000000	116.20000000
24	509.50000000	24.50000000	51.00000000	2.50000000	2.26000000	1.50000000	0.90000000	67.23000000	4.55563489	7.65809966	1.30000000	0.90000000	1.50000000	1.69590880	144.10000000	111.70000000	154.30000000	177.30000000	144.10000000

#4
liczenie
obiektów (w)	udział punktów	pole obrazu(mm²)
	16	100.00	12288.0000
nr.	x(pix.):	y(pix.):	x(mm):	y(mm):	powierzchnia:(mm²)	długość:(mm)	szerokość:(mm)	kąt:(°)	obwód:(mm)	obwód C.:(mm)	średnica Fereta H(mm)	średnica Fereta V(mm)	średn. Martina:(mm)	średn. sitowa:(mm)	średnia jaskrawość	R	G	B	Y
1	788.50000000	812.50000000	78.90000000	81.20000000	10.23000000	0.00000000	0.00000000	0.00000000	12.40000000	12.40000000	3.20000000	3.00000000	0.00000000	3.60904981	66.10000000	51.80000000	71.70000000	75.60000000	66.20000000
2	235.50000000	767.50000000	23.60000000	76.80000000	18.18000000	15.48748627	2.62859440	1.41000000	10.56568542	64.34351869	2.60000000	2.60000000	15.50000000	4.81052271	58.40000000	47.40000000	63.10000000	63.70000000	58.50000000
3	754.50000000	727.50000000	75.50000000	72.80000000	7.83000000	0.00000000	0.00000000	0.00000000	10.80000000	10.80000000	2.80000000	2.60000000	0.00000000	3.15744606	61.80000000	49.20000000	67.00000000	68.10000000	61.80000000
4	519.50000000	502.50000000	52.00000000	50.20000000	10.89000000	0.00000000	0.00000000	0.00000000	12.80000000	12.80000000	3.20000000	3.20000000	0.00000000	3.72365125	70.10000000	56.90000000	75.30000000	78.40000000	70.10000000
5	1213.50000000	411.50000000	121.40000000	41.20000000	6.15000000	2.22952518	2.10000000	42.64000000	10.13969685	13.60464808	2.30000000	2.10000000	2.20000000	2.79880929	67.70000000	49.10000000	73.60000000	86.20000000	67.70000000
6	574.50000000	409.50000000	57.50000000	41.00000000	5.29000000	0.00000000	0.00000000	0.00000000	8.80000000	8.80000000	2.20000000	2.20000000	0.00000000	2.59527208	57.30000000	48.60000000	61.60000000	58.20000000	57.30000000
7	658.50000000	398.50000000	65.90000000	39.90000000	15.75000000	0.00000000	0.00000000	0.00000000	15.60000000	15.60000000	4.40000000	3.40000000	0.00000000	4.47811599	72.50000000	57.70000000	78.10000000	82.80000000	72.50000000
8	1083.50000000	323.50000000	108.40000000	32.40000000	17.29000000	4.19453735	3.96008720	174.75000000	19.94385986	25.62380291	3.80000000	3.40000000	4.20000000	4.69249981	67.60000000	51.60000000	73.20000000	80.70000000	67.60000000
9	1255.50000000	217.50000000	125.60000000	21.80000000	2.45000000	1.60000000	1.40000000	82.99000000	6.58406197	9.43525285	1.50000000	1.40000000	1.60000000	1.76438961	60.20000000	45.30000000	64.90000000	75.20000000	60.20000000
10	643.50000000	206.50000000	64.40000000	20.70000000	10.23000000	0.00000000	0.00000000	0.00000000	12.40000000	12.40000000	3.20000000	3.00000000	0.00000000	3.60904981	67.30000000	53.90000000	72.40000000	76.40000000	67.30000000
11	1182.50000000	180.50000000	118.20000000	18.10000000	4.83000000	2.50000000	1.74335670	80.80000000	9.13969685	13.43707559	2.40000000	1.80000000	2.50000000	2.47963496	73.50000000	53.30000000	79.70000000	94.70000000	73.50000000
12	938.50000000	174.50000000	93.90000000	17.40000000	16.05000000	4.05501480	3.46467018	71.99000000	20.45096663	23.66020115	3.40000000	3.20000000	4.10000000	4.52051659	59.80000000	47.20000000	64.50000000	68.40000000	59.80000000
13	577.50000000	167.50000000	57.80000000	16.80000000	7.85000000	5.63766594	2.29173775	91.42000000	9.64852812	26.03276241	2.20000000	2.20000000	5.60000000	3.16046899	54.50000000	45.60000000	58.60000000	57.20000000	54.60000000
14	922.50000000	146.50000000	92.20000000	14.70000000	16.71000000	4.57126312	3.70000000	58.68000000	15.86690466	26.05706991	3.40000000	3.20000000	4.60000000	4.61205574	68.50000000	52.60000000	74.10000000	81.90000000	68.50000000
15	1040.50000000	121.50000000	104.10000000	12.20000000	24.28000000	4.95573006	3.50000000	96.52000000	23.38650045	26.76166094	4.70000000	3.50000000	5.00000000	5.55992999	72.90000000	54.30000000	78.90000000	90.30000000	72.90000000
16	917.50000000	73.50000000	91.80000000	7.40000000	2.53000000	2.10000000	1.30000000	32.86000000	9.70538228	10.82977347	2.00000000	1.40000000	2.10000000	1.79400854	59.20000000	45.30000000	64.30000000	69.80000000	59.20000000

#5
liczenie
obiektów (w)	udział punktów	pole obrazu(mm²)
	21	100.00	12288.0000
nr.	x(pix.):	y(pix.):	x(mm):	y(mm):	powierzchnia:(mm²)	długość:(mm)	szerokość:(mm)	kąt:(°)	obwód:(mm)	obwód C.:(mm)	średnica Fereta H(mm)	średnica Fereta V(mm)	średn. Martina:(mm)	średn. sitowa:(mm)	średnia jaskrawość	R	G	B	Y
1	950.50000000	937.50000000	95.10000000	93.80000000	8.60000000	2.90000000	2.60000000	72.03000000	18.73797235	17.29161396	2.90000000	2.80000000	2.90000000	3.30919276	73.50000000	57.80000000	79.10000000	85.80000000	73.50000000
2	1116.50000000	910.50000000	111.70000000	91.10000000	3.85000000	2.10000000	1.80000000	158.79000000	11.23675311	12.27034263	2.00000000	1.80000000	2.10000000	2.21433319	86.60000000	65.60000000	93.60000000	106.10000000	86.60000000
3	760.50000000	845.50000000	76.00000000	84.60000000	7.25000000	0.00000000	0.00000000	0.00000000	10.40000000	10.40000000	2.80000000	2.40000000	0.00000000	3.03825389	64.90000000	54.80000000	69.50000000	68.30000000	65.00000000
4	445.50000000	830.50000000	44.60000000	83.10000000	16.61000000	11.49588394	2.42732849	89.26000000	9.62426406	48.51885716	2.40000000	2.40000000	11.50000000	4.59921221	64.50000000	55.00000000	68.90000000	67.30000000	64.50000000
5	1068.50000000	789.50000000	106.90000000	79.00000000	9.98000000	3.10000000	3.00000000	124.72000000	14.54385988	19.16500275	2.90000000	2.80000000	3.10000000	3.56452685	73.50000000	58.10000000	79.20000000	84.60000000	73.50000000
6	10.50000000	789.50000000	1.10000000	79.00000000	9.02000000	3.75306320	2.60586853	3.51000000	10.21421354	20.14005396	2.80000000	2.00000000	3.80000000	3.38795727	72.20000000	60.60000000	77.00000000	78.10000000	72.20000000
7	898.50000000	753.50000000	89.90000000	75.40000000	18.44000000	6.63455505	3.41673241	179.71000000	13.15563489	32.39145363	3.20000000	3.00000000	6.60000000	4.84498785	69.10000000	56.20000000	74.30000000	76.10000000	69.10000000
8	223.50000000	698.50000000	22.40000000	69.90000000	15.21000000	5.98170929	3.36274033	0.83000000	12.48284271	29.93583864	3.40000000	2.80000000	6.00000000	4.40067875	70.70000000	59.50000000	75.50000000	75.80000000	70.70000000
9	880.50000000	665.50000000	88.10000000	66.50000000	10.23000000	0.00000000	0.00000000	0.00000000	12.40000000	12.40000000	3.20000000	3.00000000	0.00000000	3.60904981	75.30000000	61.90000000	80.70000000	82.60000000	75.30000000
10	869.50000000	651.50000000	87.00000000	65.20000000	36.96000000	9.11081543	2.20000000	90.08000000	8.88284271	38.93616406	2.20000000	2.20000000	9.10000000	6.85995143	66.60000000	55.80000000	71.50000000	69.90000000	66.60000000
11	620.50000000	620.50000000	62.10000000	62.10000000	12.21000000	0.00000000	0.00000000	0.00000000	13.60000000	13.60000000	3.60000000	3.20000000	0.00000000	3.94287393	81.90000000	67.30000000	87.80000000	89.80000000	81.90000000
12	324.50000000	571.50000000	32.50000000	57.20000000	8.99000000	0.00000000	0.00000000	0.00000000	11.60000000	11.60000000	3.00000000	2.80000000	0.00000000	3.38325635	74.20000000	61.90000000	79.40000000	80.10000000	74.20000000
13	1233.50000000	563.50000000	123.40000000	56.40000000	9.08000000	3.10000000	2.23086262	177.24000000	13.68528122	16.85887833	3.30000000	2.30000000	3.10000000	3.39959151	87.40000000	67.00000000	94.20000000	106.00000000	87.40000000
14	320.50000000	560.50000000	32.10000000	56.10000000	6.25000000	0.00000000	0.00000000	0.00000000	9.60000000	9.60000000	2.40000000	2.40000000	0.00000000	2.82094792	78.00000000	64.60000000	83.50000000	85.10000000	78.10000000
15	833.50000000	551.50000000	83.40000000	55.20000000	5.29000000	0.00000000	0.00000000	0.00000000	8.80000000	8.80000000	2.20000000	2.20000000	0.00000000	2.59527208	62.30000000	53.20000000	66.80000000	63.60000000	62.40000000
16	78.50000000	542.50000000	7.90000000	54.20000000	24.15000000	0.00000000	0.00000000	0.00000000	20.40000000	20.40000000	6.80000000	3.40000000	0.00000000	5.54515419	72.50000000	61.60000000	77.10000000	77.20000000	72.50000000
17	30.50000000	541.50000000	3.10000000	54.20000000	11.55000000	0.00000000	0.00000000	0.00000000	13.20000000	13.20000000	3.40000000	3.20000000	0.00000000	3.83482943	80.40000000	68.80000000	85.50000000	85.00000000	80.40000000
18	307.50000000	290.50000000	30.80000000	29.10000000	10.15000000	0.00000000	0.00000000	0.00000000	12.40000000	12.40000000	3.40000000	2.80000000	0.00000000	3.59491048	78.70000000	67.10000000	84.00000000	81.90000000	78.70000000
19	511.50000000	235.50000000	51.20000000	23.60000000	8.99000000	0.00000000	0.00000000	0.00000000	11.60000000	11.60000000	3.00000000	2.80000000	0.00000000	3.38325635	73.30000000	62.50000000	78.30000000	76.20000000	73.30000000
20	130.50000000	24.50000000	13.10000000	2.50000000	22.19000000	13.52213287	3.23290100	178.96000000	12.73137083	57.73008978	3.20000000	2.80000000	13.50000000	5.31537256	69.10000000	59.20000000	73.50000000	72.80000000	69.10000000
21	1242.50000000	12.00000000	124.20000000	1.20000000	2.32000000	1.52978430	1.10000000	119.51000000	6.22842708	8.31696966	1.40000000	1.30000000	1.50000000	1.71903264	104.80000000	77.70000000	113.10000000	132.80000000	104.80000000

#6
liczenie
obiektów (w)	udział punktów	pole obrazu(mm²)
	10	100.00	12288.0000
nr.	x(pix.):	y(pix.):	x(mm):	y(mm):	powierzchnia:(mm²)	długość:(mm)	szerokość:(mm)	kąt:(°)	obwód:(mm)	obwód C.:(mm)	średnica Fereta H(mm)	średnica Fereta V(mm)	średn. Martina:(mm)	średn. sitowa:(mm)	średnia jaskrawość	R	G	B	Y
1	823.50000000	859.50000000	82.40000000	86.00000000	9.14000000	3.03098927	2.89871540	62.54000000	9.53137083	18.63103411	2.40000000	2.20000000	3.00000000	3.41061820	51.20000000	40.80000000	55.50000000	57.10000000	51.30000000
2	797.50000000	830.50000000	79.80000000	83.10000000	46.08000000	18.10900116	3.20000000	90.10000000	13.44852812	75.42589105	3.40000000	3.20000000	18.10000000	7.65969178	60.50000000	46.10000000	65.70000000	71.10000000	60.50000000
3	317.50000000	679.50000000	31.80000000	68.00000000	11.55000000	0.00000000	0.00000000	0.00000000	13.20000000	13.20000000	3.40000000	3.20000000	0.00000000	3.83482943	63.90000000	48.60000000	69.50000000	75.30000000	63.90000000
4	208.50000000	674.50000000	20.90000000	67.50000000	12.87000000	0.00000000	0.00000000	0.00000000	14.00000000	14.00000000	3.80000000	3.20000000	0.00000000	4.04803569	66.60000000	50.60000000	72.40000000	78.80000000	66.60000000
5	211.50000000	580.50000000	21.20000000	58.10000000	10.23000000	0.00000000	0.00000000	0.00000000	12.40000000	12.40000000	3.20000000	3.00000000	0.00000000	3.60904981	64.10000000	49.10000000	69.70000000	74.50000000	64.10000000
6	527.50000000	529.50000000	52.80000000	53.00000000	16.81000000	0.00000000	0.00000000	0.00000000	16.00000000	16.00000000	4.00000000	4.00000000	0.00000000	4.62635459	74.70000000	56.20000000	81.30000000	89.40000000	74.70000000
7	863.50000000	406.50000000	86.40000000	40.70000000	23.97000000	0.00000000	0.00000000	0.00000000	19.20000000	19.20000000	5.00000000	4.60000000	0.00000000	5.52445037	71.70000000	54.30000000	77.90000000	85.50000000	71.70000000
8	637.50000000	322.50000000	63.80000000	32.20000000	10.23000000	0.00000000	0.00000000	0.00000000	12.40000000	12.40000000	3.20000000	3.00000000	0.00000000	3.60904981	65.40000000	50.20000000	71.20000000	75.70000000	65.40000000
9	1102.50000000	279.50000000	110.20000000	28.00000000	0.96000000	1.20000000	0.90736179	97.39000000	5.67695520	6.65242730	1.10000000	1.00000000	1.20000000	1.10619806	61.50000000	46.10000000	67.30000000	71.90000000	61.50000000
10	226.50000000	161.50000000	22.70000000	16.20000000	95.48000000	16.54196930	3.80000000	89.96000000	14.48284271	70.34643116	3.80000000	3.40000000	16.50000000	11.02582930	65.80000000	49.50000000	71.60000000	78.80000000	65.80000000

#7
liczenie
obiektów (w)	udział punktów	pole obrazu(mm²)
	18	100.00	12288.0000
nr.	x(pix.):	y(pix.):	x(mm):	y(mm):	powierzchnia:(mm²)	długość:(mm)	szerokość:(mm)	kąt:(°)	obwód:(mm)	obwód C.:(mm)	średnica Fereta H(mm)	średnica Fereta V(mm)	średn. Martina:(mm)	średn. sitowa:(mm)	średnia jaskrawość	R	G	B	Y
1	1246.50000000	900.50000000	124.70000000	90.10000000	1.64000000	1.10906801	1.20000000	126.74000000	4.71126978	7.25696384	1.10000000	1.00000000	1.10000000	1.44620474	76.20000000	55.80000000	82.70000000	96.20000000	76.20000000
2	912.50000000	888.50000000	91.20000000	88.90000000	16.88000000	5.03222237	3.29876366	93.67000000	12.92132031	26.45662244	3.20000000	3.00000000	5.00000000	4.63643480	65.70000000	52.10000000	70.80000000	75.10000000	65.70000000
3	683.50000000	825.50000000	68.40000000	82.60000000	12.21000000	0.00000000	0.00000000	0.00000000	13.60000000	13.60000000	3.60000000	3.20000000	0.00000000	3.94287393	73.90000000	58.30000000	79.80000000	84.30000000	73.90000000
4	1202.50000000	762.50000000	120.20000000	76.20000000	10.99000000	3.20000000	2.82538319	153.04000000	15.78233745	18.94759676	3.10000000	2.90000000	3.20000000	3.74026758	87.20000000	66.90000000	93.40000000	108.60000000	87.20000000
5	1145.50000000	698.50000000	114.60000000	69.90000000	6.80000000	2.32373810	2.20000000	155.57000000	10.22253956	14.21440077	2.40000000	2.20000000	2.30000000	2.94251651	76.40000000	57.90000000	82.90000000	92.00000000	76.40000000
6	1067.50000000	664.50000000	106.80000000	66.50000000	33.49000000	5.93228302	5.20000000	26.64000000	27.77228695	35.01094117	5.00000000	4.40000000	5.90000000	6.53025555	72.10000000	54.90000000	78.20000000	85.90000000	72.10000000
7	998.50000000	670.50000000	99.90000000	67.00000000	15.92000000	4.00000000	3.60000000	58.33000000	20.10954529	23.89264173	3.40000000	3.00000000	4.00000000	4.50286578	67.00000000	52.20000000	72.40000000	77.80000000	67.00000000
8	52.50000000	604.50000000	5.20000000	60.50000000	5.75000000	0.00000000	0.00000000	0.00000000	9.20000000	9.20000000	2.40000000	2.20000000	0.00000000	2.70575819	61.20000000	51.40000000	65.60000000	64.60000000	61.30000000
9	587.50000000	559.50000000	58.80000000	56.00000000	15.17000000	0.00000000	0.00000000	0.00000000	15.20000000	15.20000000	4.00000000	3.60000000	0.00000000	4.39488838	72.90000000	58.20000000	78.70000000	81.70000000	72.90000000
10	911.50000000	564.50000000	91.20000000	56.50000000	11.15000000	4.15051956	3.19842815	1.04000000	11.53137083	23.18437951	2.80000000	2.80000000	4.20000000	3.76727711	63.80000000	49.70000000	69.20000000	72.60000000	63.70000000
11	944.50000000	534.50000000	94.50000000	53.50000000	23.95000000	6.34989777	4.40025368	90.70000000	15.53137083	34.05087889	3.80000000	3.60000000	6.30000000	5.52214515	73.00000000	56.60000000	78.80000000	85.40000000	72.90000000
12	143.50000000	519.50000000	14.40000000	52.00000000	12.09000000	0.00000000	0.00000000	0.00000000	13.60000000	13.60000000	3.80000000	3.00000000	0.00000000	3.92345079	72.00000000	57.60000000	77.70000000	80.50000000	72.00000000
13	655.50000000	520.50000000	65.50000000	52.10000000	5.29000000	0.00000000	0.00000000	0.00000000	8.80000000	8.80000000	2.20000000	2.20000000	0.00000000	2.59527208	61.40000000	50.70000000	66.30000000	64.90000000	61.50000000
14	107.50000000	467.50000000	10.80000000	46.80000000	11.47000000	0.00000000	0.00000000	0.00000000	13.20000000	13.20000000	3.60000000	3.00000000	0.00000000	3.82152556	72.80000000	58.10000000	78.60000000	82.10000000	72.80000000
15	20.50000000	398.50000000	2.10000000	39.90000000	11.55000000	0.00000000	0.00000000	0.00000000	13.20000000	13.20000000	3.40000000	3.20000000	0.00000000	3.83482943	75.40000000	62.50000000	80.50000000	83.60000000	75.50000000
16	634.50000000	394.50000000	63.50000000	39.50000000	12.09000000	0.00000000	0.00000000	0.00000000	13.60000000	13.60000000	3.80000000	3.00000000	0.00000000	3.92345079	68.00000000	54.90000000	73.30000000	75.20000000	68.00000000
17	887.50000000	115.50000000	88.80000000	11.60000000	10.94000000	3.60000000	3.00000000	45.87000000	16.29533170	20.77737359	3.20000000	2.90000000	3.60000000	3.73213097	72.90000000	56.30000000	78.60000000	86.60000000	72.90000000
18	135.50000000	16.50000000	13.60000000	1.70000000	12.89000000	3.69810028	3.01391544	97.63000000	14.83259009	21.14123013	3.20000000	2.80000000	3.70000000	4.05075120	66.40000000	53.00000000	71.70000000	74.70000000	66.40000000

#8
liczenie
obiektów (w)	udział punktów	pole obrazu(mm²)
	18	100.00	12288.0000
nr.	x(pix.):	y(pix.):	x(mm):	y(mm):	powierzchnia:(mm²)	długość:(mm)	szerokość:(mm)	kąt:(°)	obwód:(mm)	obwód C.:(mm)	średnica Fereta H(mm)	średnica Fereta V(mm)	średn. Martina:(mm)	średn. sitowa:(mm)	średnia jaskrawość	R	G	B	Y
1	115.50000000	865.50000000	11.60000000	86.60000000	5.85000000	3.04922829	1.42655954	165.96000000	10.44264061	14.52706992	3.00000000	1.50000000	3.00000000	2.72838314	124.60000000	84.10000000	135.50000000	174.90000000	124.60000000
2	364.50000000	806.50000000	36.50000000	80.70000000	4.27000000	2.56899319	1.40000000	165.43000000	8.28700572	12.74087559	2.30000000	1.30000000	2.60000000	2.33222626	132.60000000	89.20000000	145.60000000	180.00000000	132.60000000
3	544.50000000	750.50000000	54.50000000	75.00000000	3.22000000	2.00000000	1.20000000	135.10000000	7.02842708	10.21079955	2.00000000	1.10000000	2.00000000	2.02510344	137.40000000	94.80000000	150.90000000	179.70000000	137.40000000
4	837.50000000	672.50000000	83.80000000	67.20000000	5.85000000	4.50000000	1.58028326	3.84000000	14.78406196	20.21980276	4.50000000	1.40000000	4.50000000	2.73028981	127.70000000	87.20000000	139.30000000	174.90000000	127.80000000
5	740.50000000	616.50000000	74.00000000	61.70000000	1.59000000	1.30000000	1.03612137	34.09000000	4.77989894	7.36257054	1.30000000	1.00000000	1.30000000	1.42283199	142.70000000	99.70000000	157.50000000	179.90000000	142.70000000
6	1143.50000000	534.50000000	114.40000000	53.50000000	1.23000000	1.49529600	0.68703918	20.68000000	3.93137083	7.09320474	1.50000000	0.70000000	1.50000000	1.25143303	105.20000000	70.50000000	112.70000000	157.90000000	105.20000000
7	426.50000000	495.50000000	42.70000000	49.60000000	1.17000000	0.80000000	0.76375546	30.15000000	2.38994948	4.91334249	0.70000000	0.70000000	0.80000000	1.22052868	112.30000000	76.70000000	121.80000000	157.00000000	112.30000000
8	559.50000000	480.50000000	56.00000000	48.10000000	0.65000000	0.80000000	0.60000000	68.02000000	2.10710677	4.42069843	0.70000000	0.50000000	0.80000000	0.90972837	105.20000000	73.90000000	112.50000000	149.40000000	105.20000000
9	494.50000000	410.50000000	49.50000000	41.10000000	1.17000000	1.10867367	0.84236231	176.47000000	3.47279218	6.15794355	1.00000000	0.80000000	1.10000000	1.22052868	113.40000000	76.30000000	122.70000000	162.70000000	113.40000000
10	293.50000000	335.50000000	29.40000000	33.60000000	1.69000000	1.75436497	0.77137990	81.58000000	4.33137083	8.23828573	1.70000000	0.70000000	1.80000000	1.46689292	111.30000000	75.40000000	120.10000000	160.60000000	111.30000000
11	860.50000000	317.50000000	86.10000000	31.80000000	1.53000000	1.40000000	0.86967068	67.36000000	4.37989894	7.22804109	1.40000000	0.80000000	1.40000000	1.39448343	108.00000000	72.00000000	116.70000000	157.90000000	108.00000000
12	587.50000000	188.50000000	58.80000000	18.90000000	11.10000000	9.57341766	1.30000000	101.89000000	32.47106769	39.31702189	9.10000000	1.30000000	9.60000000	3.76014096	119.80000000	79.90000000	130.50000000	169.60000000	119.80000000
13	719.50000000	179.50000000	72.00000000	17.90000000	1.30000000	1.21106052	0.80000000	95.09000000	4.18994948	6.38409683	1.10000000	0.70000000	1.20000000	1.28655020	117.70000000	78.60000000	127.70000000	169.10000000	117.70000000
14	300.50000000	148.50000000	30.10000000	14.90000000	3.64000000	2.40000000	1.00000000	157.39000000	7.54558437	11.13918983	2.30000000	1.10000000	2.40000000	2.15165993	116.40000000	78.80000000	126.50000000	163.00000000	116.40000000
15	1081.50000000	132.50000000	108.20000000	13.20000000	0.46000000	0.69484487	0.50000000	61.86000000	2.10710677	3.77871253	0.50000000	0.50000000	0.70000000	0.76886080	105.70000000	77.10000000	112.50000000	145.70000000	105.70000000
16	583.50000000	99.50000000	58.40000000	10.00000000	0.11000000	0.00000000	0.00000000	0.00000000	1.13137081	1.13137081	0.40000000	0.10000000	0.00000000	0.37424103	82.30000000	61.40000000	87.40000000	111.70000000	82.40000000
17	454.50000000	48.50000000	45.50000000	4.90000000	3.93000000	3.14651127	1.00000000	83.12000000	7.72132030	13.91508007	2.90000000	0.90000000	3.10000000	2.23590790	121.70000000	81.10000000	132.00000000	175.80000000	121.80000000
18	730.50000000	16.00000000	73.00000000	1.60000000	1.68000000	1.42030678	0.80906925	7.43000000	5.13137083	7.13604314	1.40000000	0.70000000	1.40000000	1.46303012	131.50000000	90.40000000	142.00000000	185.60000000	131.50000000

#9
liczenie
obiektów (w)	udział punktów	pole obrazu(mm²)
	13	100.00	12288.0000
nr.	x(pix.):	y(pix.):	x(mm):	y(mm):	powierzchnia:(mm²)	długość:(mm)	szerokość:(mm)	kąt:(°)	obwód:(mm)	obwód C.:(mm)	średnica Fereta H(mm)	średnica Fereta V(mm)	średn. Martina:(mm)	średn. sitowa:(mm)	średnia jaskrawość	R	G	B	Y
1	163.50000000	933.00000000	16.40000000	93.30000000	18.21000000	4.00000000	3.60000000	11.47000000	14.93969685	23.89264173	3.70000000	3.60000000	4.00000000	4.81560463	196.70000000	165.40000000	208.70000000	217.00000000	196.70000000
2	328.50000000	919.50000000	32.90000000	92.00000000	0.54000000	0.83647985	0.52118397	15.73000000	2.18994948	4.32293200	0.70000000	0.50000000	0.80000000	0.83225135	148.70000000	110.20000000	159.50000000	194.90000000	148.80000000
3	1165.50000000	764.50000000	116.60000000	76.50000000	0.70000000	1.40000000	0.61956573	19.75000000	4.49705625	6.58381832	1.40000000	0.60000000	1.40000000	0.94644676	130.80000000	95.80000000	140.30000000	173.90000000	130.80000000
4	293.50000000	668.50000000	29.40000000	66.90000000	0.98000000	1.06249304	0.60000000	63.16000000	2.50710677	5.32442541	0.90000000	0.50000000	1.10000000	1.11703839	169.80000000	124.00000000	185.10000000	211.10000000	169.80000000
5	112.50000000	604.50000000	11.20000000	60.50000000	1.53000000	1.05996761	0.80000000	27.04000000	3.13137083	5.87183357	0.90000000	0.70000000	1.10000000	1.39344548	165.70000000	120.60000000	182.30000000	198.20000000	165.70000000
6	455.50000000	585.50000000	45.60000000	58.60000000	3.47000000	2.81202030	0.88355312	176.29000000	8.03847760	12.41483963	2.80000000	0.90000000	2.80000000	2.10123844	170.50000000	122.80000000	186.50000000	213.30000000	170.60000000
7	798.50000000	500.50000000	79.90000000	50.10000000	1.63000000	1.60000000	0.70000000	113.69000000	5.52132031	7.50501473	1.60000000	0.80000000	1.60000000	1.44032345	167.50000000	122.50000000	182.20000000	209.90000000	167.50000000
8	986.50000000	407.50000000	98.70000000	40.80000000	1.02000000	1.10000000	0.70271373	91.14000000	4.15563489	5.73236897	1.10000000	0.70000000	1.10000000	1.13702588	173.80000000	131.70000000	189.10000000	205.50000000	173.80000000
9	105.50000000	364.50000000	10.60000000	36.50000000	1.17000000	0.90000000	0.65566688	2.97000000	2.98994948	4.91745802	0.90000000	0.50000000	0.90000000	1.21878880	156.10000000	112.70000000	170.10000000	198.10000000	156.10000000
10	448.50000000	256.50000000	44.90000000	25.70000000	2.46000000	2.40000000	0.83849907	111.78000000	8.99411249	10.77451855	2.40000000	0.90000000	2.40000000	1.76929734	165.90000000	121.50000000	180.30000000	208.50000000	165.90000000
11	1006.50000000	237.50000000	100.70000000	23.80000000	0.86000000	1.00000000	0.60000000	21.89000000	2.58994946	5.10539977	0.90000000	0.50000000	1.00000000	1.04641579	180.20000000	134.70000000	196.50000000	215.30000000	180.20000000
12	978.50000000	188.50000000	97.90000000	18.90000000	1.54000000	1.90000000	1.03026133	46.39000000	5.72132030	9.40957940	1.90000000	0.80000000	1.90000000	1.40056584	142.20000000	103.40000000	153.50000000	185.60000000	142.20000000
13	788.50000000	125.50000000	78.90000000	12.60000000	1.97000000	2.45983810	0.72352767	81.38000000	5.38994948	10.75963994	2.40000000	0.50000000	2.50000000	1.58432977	138.30000000	99.60000000	149.50000000	181.80000000	138.20000000

#10
liczenie
obiektów (w)	udział punktów	pole obrazu(mm²)
	15	100.00	12288.0000
nr.	x(pix.):	y(pix.):	x(mm):	y(mm):	powierzchnia:(mm²)	długość:(mm)	szerokość:(mm)	kąt:(°)	obwód:(mm)	obwód C.:(mm)	średnica Fereta H(mm)	średnica Fereta V(mm)	średn. Martina:(mm)	średn. sitowa:(mm)	średnia jaskrawość	R	G	B	Y
1	528.50000000	914.50000000	52.90000000	91.50000000	10.15000000	0.00000000	0.00000000	0.00000000	12.40000000	12.40000000	3.40000000	2.80000000	0.00000000	3.59491048	59.90000000	47.00000000	64.70000000	69.30000000	60.00000000
2	1095.50000000	910.50000000	109.60000000	91.10000000	9.13000000	3.54667740	2.50000000	7.69000000	19.99655101	19.13876379	3.60000000	2.40000000	3.50000000	3.40945079	56.20000000	41.90000000	60.80000000	70.80000000	56.30000000
3	1252.50000000	851.50000000	125.20000000	85.20000000	4.59000000	2.43895741	1.60000000	2.94000000	8.85685415	12.82599957	2.40000000	1.60000000	2.40000000	2.41689559	61.60000000	43.50000000	66.90000000	82.40000000	61.70000000
4	1149.50000000	811.50000000	115.00000000	81.20000000	6.43000000	2.50000000	2.30000000	138.31000000	14.46101714	15.08619043	2.40000000	2.40000000	2.50000000	2.86213985	58.90000000	43.40000000	64.00000000	73.70000000	58.90000000
5	1176.50000000	781.50000000	117.70000000	78.20000000	12.36000000	3.39584389	2.90000000	166.39000000	17.51370828	19.80965967	3.10000000	2.90000000	3.40000000	3.96633131	61.80000000	45.50000000	67.20000000	77.20000000	61.80000000
6	355.50000000	771.50000000	35.60000000	77.20000000	11.55000000	0.00000000	0.00000000	0.00000000	13.20000000	13.20000000	3.40000000	3.20000000	0.00000000	3.83482943	60.80000000	47.00000000	66.10000000	70.50000000	60.90000000
7	640.50000000	726.50000000	64.00000000	72.70000000	12.71000000	0.00000000	0.00000000	0.00000000	14.00000000	14.00000000	4.00000000	3.00000000	0.00000000	4.02279438	63.10000000	48.90000000	68.30000000	73.50000000	63.10000000
8	646.50000000	571.50000000	64.70000000	57.20000000	10.53000000	0.00000000	0.00000000	0.00000000	12.80000000	12.80000000	3.80000000	2.60000000	0.00000000	3.66158605	61.00000000	47.10000000	66.00000000	71.70000000	61.00000000
9	823.50000000	542.50000000	82.40000000	54.20000000	21.47000000	13.71649170	2.80990963	1.27000000	12.02426406	57.74660941	3.20000000	2.80000000	13.70000000	5.22781855	53.70000000	41.80000000	58.10000000	62.60000000	53.80000000
10	974.50000000	432.50000000	97.50000000	43.20000000	19.45000000	4.24787941	4.15456848	20.74000000	17.12548332	26.39788243	3.40000000	3.40000000	4.20000000	4.97698294	53.70000000	40.90000000	58.30000000	64.00000000	53.80000000
11	303.50000000	334.50000000	30.40000000	33.50000000	13.53000000	0.00000000	0.00000000	0.00000000	14.40000000	14.40000000	4.00000000	3.20000000	0.00000000	4.15053383	69.80000000	53.80000000	75.40000000	83.10000000	69.80000000
12	188.50000000	327.50000000	18.90000000	32.80000000	36.35000000	12.23528748	2.60000000	89.94000000	10.56568542	51.66750880	2.60000000	2.60000000	12.20000000	6.80310646	49.10000000	38.90000000	53.20000000	54.80000000	49.10000000
13	276.50000000	325.50000000	27.70000000	32.60000000	9.57000000	0.00000000	0.00000000	0.00000000	12.00000000	12.00000000	3.20000000	2.80000000	0.00000000	3.49068796	58.70000000	44.70000000	64.00000000	68.50000000	58.80000000
14	640.50000000	266.50000000	64.00000000	26.70000000	7.29000000	0.00000000	0.00000000	0.00000000	10.40000000	10.40000000	2.60000000	2.60000000	0.00000000	3.04662375	50.60000000	40.30000000	55.00000000	56.10000000	50.70000000
15	779.50000000	123.50000000	78.00000000	12.40000000	12.61000000	3.33886642	3.17081490	4.36000000	16.58822497	20.45417449	3.00000000	2.80000000	3.30000000	4.00662004	57.60000000	44.20000000	62.20000000	69.30000000	57.60000000
