
#1
liczenie
obiektów (w)	udział punktów	pole obrazu(mm²)
	58	100.00	12288.0000
nr.	x(pix.):	y(pix.):	x(mm):	y(mm):	powierzchnia:(mm²)	długość:(mm)	szerokość:(mm)	kąt:(°)	obwód:(mm)	obwód C.:(mm)	średnica Fereta H(mm)	średnica Fereta V(mm)	średn. Martina:(mm)	średn. sitowa:(mm)	średnia jaskrawość	R	G	B	Y
1	182.50000000	918.50000000	18.20000000	91.90000000	0.09000000	0.42426405	0.10000000	135.00000000	0.90710677	1.80873735	0.40000000	0.10000000	0.40000000	0.33851375	104.40000000	80.20000000	109.60000000	142.20000000	104.50000000
2	509.50000000	841.50000000	51.00000000	84.20000000	4.86000000	0.00000000	0.00000000	0.00000000	28.85512965	28.85512965	9.80000000	2.50000000	0.00000000	2.48755788	119.60000000	93.80000000	128.00000000	144.10000000	119.60000000
3	1084.50000000	848.50000000	108.50000000	84.90000000	0.07000000	0.00000000	0.00000000	0.00000000	0.74142135	0.74142135	0.30000000	0.10000000	0.00000000	0.29854107	114.90000000	95.40000000	122.00000000	128.90000000	114.80000000
4	412.50000000	839.50000000	41.20000000	84.00000000	0.23000000	0.60869517	0.40000000	103.28000000	1.54142135	3.20291317	0.50000000	0.30000000	0.60000000	0.54115164	120.90000000	95.60000000	128.00000000	150.70000000	120.90000000
5	81.50000000	826.50000000	8.20000000	82.70000000	1.56000000	1.88533211	1.30000000	52.64000000	7.92132031	10.09167303	1.90000000	1.30000000	1.90000000	1.40934513	149.30000000	114.50000000	160.50000000	182.80000000	149.30000000
6	112.50000000	791.50000000	11.20000000	79.20000000	2.14000000	2.23326206	1.20000000	1.22000000	8.72132031	11.03155867	2.10000000	1.20000000	2.20000000	1.65067641	158.30000000	121.30000000	170.90000000	190.80000000	158.40000000
7	566.50000000	796.50000000	56.70000000	79.70000000	0.57000000	0.90000000	0.80000000	127.91000000	4.23847759	5.34532850	0.90000000	0.80000000	0.90000000	0.85190759	150.50000000	116.70000000	162.30000000	178.50000000	150.50000000
8	196.50000000	792.50000000	19.70000000	79.20000000	0.40000000	0.75996175	0.60000000	78.20000000	2.33137082	4.28723597	0.70000000	0.60000000	0.80000000	0.71364965	165.00000000	130.60000000	177.60000000	189.70000000	164.90000000
9	20.50000000	788.50000000	2.10000000	78.90000000	0.57000000	1.17515926	0.70000000	121.83000000	3.75563489	5.98593725	1.20000000	0.70000000	1.20000000	0.85190759	146.80000000	115.40000000	157.00000000	176.60000000	146.80000000
10	566.50000000	738.50000000	56.70000000	73.90000000	1.05000000	1.87265358	0.80000000	151.88000000	5.37989895	8.73805555	1.70000000	0.70000000	1.90000000	1.15624458	144.20000000	111.70000000	155.00000000	173.50000000	144.20000000
11	239.50000000	735.50000000	24.00000000	73.50000000	0.76000000	1.20000000	0.80000000	34.58000000	3.63847760	6.34617584	1.20000000	0.70000000	1.20000000	0.98369815	170.40000000	134.70000000	183.90000000	194.30000000	170.40000000
12	410.50000000	726.50000000	41.10000000	72.70000000	0.59000000	1.02922306	0.60000000	5.71000000	2.87279218	5.20756011	0.90000000	0.60000000	1.00000000	0.86672448	154.40000000	120.10000000	167.00000000	179.40000000	154.40000000
13	526.50000000	713.50000000	52.70000000	71.40000000	0.11000000	0.40133028	0.30000000	147.31000000	1.30710677	2.21480776	0.30000000	0.30000000	0.40000000	0.37424103	111.80000000	92.50000000	117.50000000	133.50000000	111.80000000
14	56.50000000	707.50000000	5.70000000	70.80000000	0.05000000	0.00000000	0.00000000	0.00000000	0.56568542	0.56568542	0.10000000	0.10000000	0.00000000	0.25231325	101.00000000	84.40000000	105.80000000	118.00000000	100.80000000
15	577.50000000	704.50000000	57.80000000	70.50000000	0.19000000	0.67196040	0.30000000	9.10000000	1.76568542	3.16636493	0.50000000	0.30000000	0.70000000	0.49184908	131.80000000	108.80000000	140.10000000	149.80000000	131.80000000
16	83.50000000	697.50000000	8.30000000	69.80000000	1.20000000	1.81999760	1.00000000	157.70000000	5.29705625	9.04756418	1.70000000	1.00000000	1.80000000	1.23607745	140.00000000	109.00000000	150.10000000	169.50000000	140.00000000
17	101.50000000	650.50000000	10.20000000	65.00000000	0.33000000	0.63651943	0.60000000	26.21000000	1.90710677	3.88548751	0.60000000	0.50000000	0.60000000	0.64820448	137.70000000	109.00000000	147.70000000	162.20000000	137.80000000
18	307.50000000	603.50000000	30.80000000	60.40000000	0.47000000	0.90164852	0.60000000	86.96000000	3.04852812	4.76528013	0.90000000	0.50000000	0.90000000	0.77357778	155.20000000	122.00000000	166.90000000	181.70000000	155.20000000
19	869.50000000	588.50000000	87.00000000	58.90000000	0.86000000	1.20000000	0.90000000	40.76000000	3.61421354	6.63104765	1.00000000	1.00000000	1.20000000	1.04641579	179.20000000	147.30000000	190.60000000	204.60000000	179.20000000
20	586.50000000	561.50000000	58.70000000	56.20000000	1.02000000	1.48830261	0.90000000	131.01000000	5.12132031	7.61732795	1.50000000	0.80000000	1.50000000	1.13960710	154.20000000	120.60000000	166.00000000	182.20000000	154.30000000
21	418.50000000	527.50000000	41.90000000	52.80000000	0.55000000	1.00000000	0.70000000	101.13000000	3.80416301	5.38236898	0.80000000	0.80000000	1.00000000	0.83682839	156.20000000	122.50000000	168.10000000	182.80000000	156.20000000
22	780.50000000	520.50000000	78.10000000	52.10000000	2.65000000	4.07721176	0.90000000	122.60000000	12.92548332	17.27482272	3.90000000	0.90000000	4.10000000	1.83686820	146.60000000	113.60000000	157.40000000	178.00000000	146.70000000
23	50.50000000	513.50000000	5.10000000	51.40000000	1.92000000	2.80000000	1.20000000	8.04000000	8.58406197	13.07426666	2.80000000	1.20000000	2.80000000	1.56352804	148.20000000	115.90000000	159.10000000	177.40000000	148.20000000
24	184.50000000	508.50000000	18.40000000	50.90000000	1.19000000	1.80000000	0.90000000	105.38000000	6.09705625	8.71960339	1.70000000	0.90000000	1.80000000	1.23091635	164.10000000	127.30000000	177.20000000	193.60000000	164.10000000
25	884.50000000	511.50000000	88.50000000	51.20000000	1.22000000	1.61364193	0.80000000	85.16000000	4.18994948	7.79967408	1.60000000	0.70000000	1.60000000	1.24633553	173.20000000	136.60000000	186.50000000	199.90000000	173.10000000
26	733.50000000	491.50000000	73.40000000	49.20000000	0.18000000	0.68484526	0.30000000	1.34000000	1.56568542	3.21326769	0.50000000	0.30000000	0.70000000	0.47873074	128.10000000	105.80000000	136.30000000	143.90000000	128.00000000
27	794.50000000	478.50000000	79.50000000	47.90000000	0.34000000	0.68099957	0.60000000	94.77000000	1.98994946	4.02840242	0.60000000	0.60000000	0.70000000	0.65795246	152.00000000	119.10000000	163.40000000	179.70000000	152.00000000
28	1259.50000000	445.50000000	126.00000000	44.60000000	0.42000000	1.00000000	0.50000000	42.11000000	2.64852812	4.84422411	0.90000000	0.50000000	1.00000000	0.73127328	131.80000000	100.30000000	142.90000000	157.60000000	131.90000000
29	166.50000000	405.50000000	16.70000000	40.60000000	0.78000000	1.21472092	0.80000000	68.57000000	3.18994948	6.39666007	1.10000000	0.70000000	1.20000000	0.99655750	165.60000000	131.20000000	178.60000000	188.80000000	165.60000000
30	1201.50000000	377.50000000	120.20000000	37.80000000	0.43000000	0.87589245	0.60000000	124.87000000	2.28284271	4.67724770	0.70000000	0.50000000	0.90000000	0.73992770	163.00000000	125.70000000	176.70000000	190.60000000	163.00000000
31	1249.50000000	368.50000000	125.00000000	36.90000000	0.48000000	1.00000000	0.60000000	15.46000000	3.55563488	5.10539977	1.00000000	0.60000000	1.00000000	0.78176402	154.50000000	119.10000000	166.70000000	184.00000000	154.50000000
32	279.50000000	335.50000000	28.00000000	33.60000000	1.92000000	2.45338306	1.00000000	93.82000000	7.93137083	11.33509682	2.10000000	0.90000000	2.50000000	1.56352804	172.70000000	136.40000000	185.90000000	200.60000000	172.70000000
33	430.50000000	330.50000000	43.10000000	33.10000000	1.67000000	2.20000000	1.00000000	53.13000000	5.80416301	10.40974761	2.10000000	1.00000000	2.20000000	1.45818724	160.80000000	122.10000000	174.20000000	194.00000000	160.90000000
34	39.50000000	330.50000000	4.00000000	33.10000000	0.87000000	1.30000000	0.80000000	102.83000000	3.98994948	6.69118043	1.20000000	0.70000000	1.30000000	1.05248202	167.20000000	133.50000000	179.30000000	193.50000000	167.20000000
35	165.50000000	301.50000000	16.60000000	30.20000000	1.36000000	1.80000000	1.10000000	61.56000000	5.29705625	9.24381435	1.80000000	1.00000000	1.80000000	1.31590493	137.30000000	104.90000000	147.50000000	169.90000000	137.30000000
36	1123.50000000	297.50000000	112.40000000	29.80000000	0.95000000	1.40000000	0.80000000	37.77000000	4.12132030	7.04063244	1.40000000	0.80000000	1.40000000	1.09980797	164.10000000	125.70000000	177.60000000	195.60000000	164.10000000
37	15.50000000	254.50000000	1.60000000	25.50000000	0.69000000	1.20000000	0.80000000	56.63000000	4.80416301	6.34617584	1.20000000	0.70000000	1.20000000	0.93730213	163.80000000	129.80000000	176.20000000	189.10000000	163.80000000
38	339.50000000	244.50000000	34.00000000	24.50000000	0.58000000	1.06108818	0.70000000	76.53000000	2.76568542	5.59092418	1.00000000	0.50000000	1.10000000	0.85934797	153.80000000	120.40000000	165.50000000	181.60000000	153.90000000
39	396.50000000	229.50000000	39.70000000	23.00000000	0.93000000	1.30199127	0.90000000	43.37000000	3.58994946	6.97551849	1.10000000	0.90000000	1.30000000	1.08816946	173.40000000	138.50000000	186.40000000	198.30000000	173.40000000
40	1092.50000000	229.50000000	109.20000000	23.00000000	0.09000000	0.58202009	0.30000000	27.77000000	1.53137083	2.84223497	0.60000000	0.20000000	0.60000000	0.33851375	103.80000000	83.40000000	111.00000000	120.20000000	103.80000000
41	452.50000000	181.50000000	45.20000000	18.20000000	0.70000000	1.20000000	0.80000000	75.28000000	4.01421354	6.34617584	1.10000000	0.70000000	1.20000000	0.94406974	153.20000000	119.70000000	165.40000000	179.00000000	153.30000000
42	1203.50000000	167.50000000	120.40000000	16.80000000	1.64000000	2.06081638	1.00000000	108.76000000	6.83847760	9.90683175	2.10000000	1.00000000	2.10000000	1.44503040	166.80000000	126.10000000	180.70000000	202.30000000	166.80000000
43	995.50000000	163.50000000	99.60000000	16.40000000	1.30000000	2.81776428	1.00000000	63.54000000	5.55563488	12.68385229	2.10000000	0.90000000	2.80000000	1.28655020	158.60000000	117.60000000	172.00000000	197.10000000	158.60000000
44	133.50000000	154.50000000	13.40000000	15.50000000	0.88000000	1.56293154	1.00000000	108.68000000	3.98994948	8.14909332	1.10000000	0.90000000	1.60000000	1.05851349	155.10000000	119.60000000	167.50000000	185.00000000	155.10000000
45	211.50000000	96.50000000	21.20000000	9.70000000	0.70000000	1.18549929	0.70000000	36.16000000	3.07279217	6.02206849	1.10000000	0.70000000	1.20000000	0.94406974	148.70000000	112.00000000	161.60000000	179.20000000	148.80000000
46	188.50000000	87.50000000	18.90000000	8.80000000	0.50000000	0.80000000	0.70000000	33.53000000	2.44852812	4.71762642	0.70000000	0.70000000	0.80000000	0.79788456	147.10000000	114.00000000	159.30000000	170.70000000	147.10000000
47	31.50000000	77.50000000	3.20000000	7.80000000	1.16000000	1.50000000	1.00000000	98.63000000	5.57989895	7.93271979	1.50000000	0.90000000	1.50000000	1.21530156	169.30000000	138.10000000	180.80000000	191.90000000	169.30000000
48	863.50000000	78.50000000	86.40000000	7.90000000	0.25000000	0.61208019	0.50000000	48.57000000	1.98994948	3.50258041	0.60000000	0.50000000	0.60000000	0.56418958	152.80000000	121.40000000	163.80000000	178.50000000	152.80000000
49	760.50000000	71.50000000	76.00000000	7.20000000	0.46000000	0.86227674	0.60000000	34.42000000	2.33137083	4.63089983	0.80000000	0.60000000	0.90000000	0.76530399	162.10000000	127.50000000	175.20000000	185.00000000	162.10000000
50	867.50000000	63.50000000	86.80000000	6.40000000	0.54000000	0.90000000	0.80000000	138.72000000	2.70710677	5.34532850	0.70000000	0.70000000	0.90000000	0.82918596	168.60000000	131.70000000	181.90000000	196.60000000	168.50000000
51	65.50000000	56.50000000	6.60000000	5.70000000	0.75000000	1.10000000	0.90000000	63.81000000	3.18994948	6.29890311	0.90000000	0.90000000	1.10000000	0.97720502	168.00000000	136.00000000	179.80000000	190.40000000	167.90000000
52	427.50000000	39.50000000	42.80000000	4.00000000	1.62000000	1.90000000	1.30000000	155.18000000	7.36984843	10.14164966	1.70000000	1.30000000	1.90000000	1.43619221	166.60000000	130.80000000	179.30000000	195.10000000	166.60000000
53	1063.50000000	44.50000000	106.40000000	4.50000000	0.39000000	0.81269855	0.50000000	104.41000000	2.10710677	4.18267742	0.70000000	0.50000000	0.80000000	0.70467256	137.80000000	107.70000000	147.70000000	164.90000000	137.70000000
54	190.50000000	35.50000000	19.10000000	3.60000000	1.47000000	1.60000000	1.10000000	87.82000000	6.09705623	8.55517944	1.50000000	1.10000000	1.60000000	1.36808703	175.00000000	145.20000000	185.60000000	199.00000000	175.00000000
55	460.50000000	15.50000000	46.10000000	1.60000000	0.61000000	1.20000000	0.70000000	66.19000000	3.52132031	6.07282316	1.20000000	0.60000000	1.20000000	0.88129230	162.90000000	130.60000000	174.60000000	187.50000000	162.90000000
56	1087.50000000	14.50000000	108.80000000	1.50000000	0.67000000	1.20000000	0.80000000	106.77000000	4.41421354	6.34617584	1.10000000	0.70000000	1.20000000	0.92361815	151.70000000	118.10000000	162.30000000	184.90000000	151.70000000
57	559.50000000	11.50000000	56.00000000	1.20000000	0.17000000	0.52001939	0.30000000	11.91000000	1.30710677	2.62274409	0.40000000	0.40000000	0.50000000	0.46524265	127.90000000	102.90000000	136.50000000	149.00000000	127.90000000
58	580.50000000	11.50000000	58.10000000	1.20000000	0.43000000	0.80000000	0.60000000	101.47000000	2.44852812	4.42069843	0.80000000	0.50000000	0.80000000	0.73992770	168.30000000	135.60000000	180.30000000	191.90000000	168.30000000

#2
liczenie
obiektów (w)	udział punktów	pole obrazu(mm²)
	216	100.00	12288.0000
nr.	x(pix.):	y(pix.):	x(mm):	y(mm):	powierzchnia:(mm²)	długość:(mm)	szerokość:(mm)	kąt:(°)	obwód:(mm)	obwód C.:(mm)	średnica Fereta H(mm)	średnica Fereta V(mm)	średn. Martina:(mm)	średn. sitowa:(mm)	średnia jaskrawość	R	G	B	Y
1	21.50000000	949.00000000	2.10000000	94.90000000	0.76000000	1.07238674	1.00000000	40.82000000	3.67279218	6.51258092	0.90000000	0.90000000	1.10000000	0.98369815	135.70000000	100.80000000	145.50000000	176.50000000	135.70000000
2	945.50000000	950.50000000	94.60000000	95.10000000	0.57000000	1.91581955	1.00000000	143.17000000	4.10710677	9.38766302	1.20000000	0.60000000	1.90000000	0.85190759	142.20000000	100.50000000	155.40000000	183.10000000	142.20000000
3	826.50000000	949.50000000	82.70000000	95.00000000	0.30000000	0.82249966	0.30000000	87.21000000	2.22426406	3.72019540	0.80000000	0.30000000	0.80000000	0.61803872	127.90000000	90.50000000	137.60000000	175.50000000	127.90000000
4	409.50000000	942.50000000	41.00000000	94.20000000	0.14000000	0.84913540	0.30000000	125.06000000	1.47279217	3.81934142	0.40000000	0.30000000	0.80000000	0.42220082	108.40000000	81.60000000	116.10000000	138.10000000	108.30000000
5	637.50000000	939.50000000	63.80000000	94.00000000	0.01000000	0.00000000	0.00000000	0.00000000	0.00000000	0.00000000	0.00000000	0.00000000	0.00000000	0.11283792	100.00000000	78.00000000	107.00000000	125.00000000	100.40000000
6	1201.50000000	933.50000000	120.20000000	93.40000000	0.41000000	0.85538044	0.50000000	138.17000000	2.33137082	4.33155717	0.80000000	0.50000000	0.90000000	0.72251520	110.80000000	78.40000000	118.00000000	158.70000000	110.80000000
7	975.50000000	914.50000000	97.60000000	91.50000000	1.28000000	1.94826622	0.90000000	32.14000000	5.65269114	9.25375605	1.90000000	0.90000000	1.90000000	1.27661530	127.00000000	91.30000000	136.50000000	171.80000000	127.00000000
8	268.50000000	916.50000000	26.90000000	91.70000000	0.96000000	2.10000000	0.70000000	114.65000000	6.74558434	9.35542495	2.20000000	0.80000000	2.10000000	1.10558128	121.30000000	90.80000000	129.90000000	157.20000000	121.30000000
9	627.50000000	915.50000000	62.80000000	91.60000000	0.03000000	0.00000000	0.00000000	0.00000000	0.40000000	0.40000000	0.20000000	0.00000000	0.00000000	0.19544100	101.70000000	76.70000000	109.70000000	126.70000000	101.70000000
10	908.50000000	906.50000000	90.90000000	90.70000000	0.97000000	1.14621658	1.00000000	26.74000000	4.15563489	6.75036418	1.10000000	0.90000000	1.10000000	1.11132460	150.20000000	110.90000000	163.50000000	184.50000000	150.20000000
11	613.50000000	905.50000000	61.40000000	90.60000000	0.23000000	0.70000000	0.50000000	22.00000000	1.82426406	3.79613689	0.60000000	0.40000000	0.70000000	0.54115164	108.70000000	75.20000000	117.90000000	149.70000000	108.70000000
12	1062.50000000	901.50000000	106.20000000	90.20000000	0.30000000	0.68900084	0.50000000	14.88000000	2.18994948	3.75898965	0.60000000	0.50000000	0.70000000	0.61803872	119.40000000	84.40000000	127.60000000	169.60000000	119.50000000
13	436.50000000	895.50000000	43.70000000	89.60000000	0.61000000	0.92768812	0.80000000	5.07000000	3.44852812	5.43510668	0.90000000	0.70000000	0.90000000	0.88129230	134.20000000	98.90000000	144.70000000	172.80000000	134.20000000
14	1164.50000000	894.50000000	116.50000000	89.50000000	0.53000000	0.99821987	0.60000000	53.82000000	2.87279217	5.09919202	1.00000000	0.60000000	1.00000000	0.82147243	128.80000000	91.40000000	138.10000000	179.20000000	128.80000000
15	777.50000000	886.50000000	77.80000000	88.70000000	0.39000000	0.84360352	0.60000000	166.07000000	2.24852812	4.56755769	0.60000000	0.60000000	0.80000000	0.70467256	127.20000000	92.70000000	137.80000000	162.20000000	127.10000000
16	24.50000000	883.50000000	2.50000000	88.40000000	0.55000000	0.98115234	0.80000000	19.87000000	2.64852812	5.61013477	0.70000000	0.70000000	1.00000000	0.83682839	131.80000000	102.70000000	140.00000000	166.40000000	131.80000000
17	927.50000000	880.50000000	92.80000000	88.10000000	1.01000000	1.50000000	1.40000000	38.88000000	6.27695520	9.11332717	1.40000000	1.20000000	1.50000000	1.13400703	77.00000000	56.00000000	84.20000000	95.40000000	77.00000000
18	873.50000000	877.50000000	87.40000000	87.80000000	0.02000000	0.00000000	0.00000000	0.00000000	0.28284271	0.28284271	0.10000000	0.00000000	0.00000000	0.15957691	102.00000000	78.00000000	109.00000000	129.50000000	102.10000000
19	598.50000000	874.50000000	59.90000000	87.50000000	0.12000000	0.80000000	0.10000000	0.00000000	1.82426406	3.27447660	0.80000000	0.10000000	0.80000000	0.39088201	106.30000000	80.20000000	114.40000000	132.70000000	106.30000000
20	518.50000000	858.50000000	51.90000000	85.90000000	0.03000000	0.00000000	0.00000000	0.00000000	0.56568542	0.56568542	0.10000000	0.10000000	0.00000000	0.19544100	102.00000000	78.70000000	110.00000000	123.00000000	102.10000000
21	435.50000000	836.50000000	43.60000000	83.70000000	0.49000000	0.80000000	0.80000000	116.63000000	2.95563488	5.02654825	0.80000000	0.70000000	0.80000000	0.78986542	146.10000000	111.10000000	157.90000000	177.10000000	146.10000000
22	597.50000000	838.50000000	59.80000000	83.90000000	3.32000000	2.40000000	2.20000000	21.99000000	16.03675311	14.45815656	2.20000000	2.00000000	2.40000000	2.05600469	82.80000000	62.50000000	90.30000000	97.80000000	82.80000000
23	298.00000000	830.00000000	29.80000000	83.00000000	0.43000000	0.79308009	0.60000000	125.31000000	2.38994948	4.39753341	0.70000000	0.60000000	0.80000000	0.73992770	140.00000000	103.40000000	151.80000000	174.70000000	140.00000000
24	200.50000000	831.50000000	20.10000000	83.20000000	0.15000000	0.50000000	0.30000000	128.41000000	1.30710677	2.55269989	0.40000000	0.30000000	0.50000000	0.43701937	106.50000000	82.10000000	113.80000000	133.30000000	106.50000000
25	1089.50000000	825.50000000	109.00000000	82.60000000	0.64000000	1.10000000	0.80000000	12.50000000	3.89705623	6.00628745	1.10000000	0.70000000	1.10000000	0.90270333	126.00000000	89.50000000	135.50000000	173.10000000	126.00000000
26	581.50000000	825.50000000	58.20000000	82.60000000	1.60000000	2.40000000	1.80000000	122.36000000	13.37817445	13.26209530	2.00000000	1.80000000	2.40000000	1.42729929	85.80000000	64.80000000	93.50000000	102.30000000	85.90000000
27	364.50000000	823.50000000	36.50000000	82.40000000	0.03000000	0.00000000	0.00000000	0.00000000	0.56568542	0.56568542	0.10000000	0.10000000	0.00000000	0.19544100	105.30000000	84.00000000	112.30000000	125.00000000	105.30000000
28	954.50000000	814.50000000	95.50000000	81.50000000	0.60000000	1.00000000	0.70000000	66.09000000	3.21421354	5.38236898	0.90000000	0.70000000	1.00000000	0.87403874	131.50000000	94.20000000	141.80000000	175.80000000	131.50000000
29	171.50000000	813.50000000	17.20000000	81.40000000	0.77000000	1.46800461	0.70000000	128.98000000	4.37989895	7.02639534	1.40000000	0.70000000	1.50000000	0.99014870	126.00000000	90.30000000	136.30000000	166.60000000	126.00000000
30	91.50000000	812.50000000	9.20000000	81.20000000	0.66000000	1.03385506	0.90000000	33.52000000	3.18994948	6.08266374	0.90000000	0.90000000	1.00000000	0.91669957	123.20000000	90.00000000	133.10000000	159.70000000	123.20000000
31	411.50000000	802.50000000	41.20000000	80.20000000	1.12000000	1.70000000	1.00000000	111.57000000	5.51126977	8.62544451	1.60000000	1.10000000	1.70000000	1.19416426	128.10000000	94.20000000	139.20000000	159.60000000	128.10000000
32	586.50000000	804.50000000	58.70000000	80.50000000	0.06000000	7749064.00000000	0.10000000	0.00000000	0.82426406	30983785.05441816	0.30000000	0.10000000	7749064.00000000	0.27639532	105.20000000	82.20000000	112.70000000	125.20000000	105.00000000
33	1160.50000000	801.50000000	116.10000000	80.20000000	0.34000000	0.70000000	0.60000000	118.73000000	2.73137083	4.09011421	0.60000000	0.60000000	0.70000000	0.65795246	117.50000000	85.40000000	125.90000000	158.60000000	117.50000000
34	790.50000000	802.50000000	79.10000000	80.20000000	0.05000000	0.00000000	0.00000000	0.00000000	0.56568542	0.56568542	0.10000000	0.10000000	0.00000000	0.25231325	103.60000000	79.20000000	111.20000000	128.80000000	103.60000000
35	879.50000000	790.50000000	88.00000000	79.10000000	0.39000000	0.76371007	0.70000000	49.02000000	2.89705623	4.60055903	0.70000000	0.60000000	0.80000000	0.70467256	117.80000000	84.30000000	127.50000000	156.10000000	117.80000000
36	124.50000000	784.50000000	12.50000000	78.50000000	0.72000000	1.10000000	0.90000000	153.99000000	3.27279218	6.29890311	1.00000000	0.70000000	1.10000000	0.95746147	135.90000000	95.90000000	148.20000000	177.90000000	135.90000000
37	1136.50000000	780.50000000	113.70000000	78.10000000	0.89000000	1.15942965	0.90000000	1.29000000	4.89705625	6.49558202	1.10000000	0.90000000	1.20000000	1.06451078	138.20000000	99.20000000	150.00000000	180.10000000	138.30000000
38	608.50000000	784.50000000	60.90000000	78.50000000	0.05000000	0.00000000	0.00000000	0.00000000	0.56568542	0.56568542	0.10000000	0.10000000	0.00000000	0.25231325	101.80000000	77.40000000	109.80000000	124.40000000	101.80000000
39	1077.50000000	781.50000000	107.80000000	78.20000000	0.12000000	0.40000000	0.30000000	126.74000000	1.02426406	2.21034922	0.30000000	0.30000000	0.40000000	0.39088201	112.60000000	82.50000000	121.40000000	146.80000000	112.70000000
40	326.50000000	774.50000000	32.60000000	77.50000000	0.17000000	0.54183178	0.40000000	50.19000000	1.30710677	2.97565075	0.40000000	0.40000000	0.50000000	0.46524265	111.40000000	83.30000000	118.80000000	147.20000000	111.40000000
41	596.50000000	770.50000000	59.70000000	77.10000000	0.03000000	0.00000000	0.00000000	0.00000000	0.34142135	0.34142135	0.10000000	0.10000000	0.00000000	0.19544100	102.70000000	77.70000000	110.70000000	128.30000000	102.80000000
42	1063.50000000	768.50000000	106.40000000	76.90000000	0.06000000	4.00662918	0.10000000	45.04000000	0.84852812	16.04731909	0.30000000	0.10000000	4.00000000	0.27639532	103.80000000	76.20000000	111.50000000	137.30000000	103.90000000
43	1143.50000000	764.50000000	114.40000000	76.50000000	1.07000000	1.40000000	1.00000000	172.88000000	5.49705625	7.59227379	1.30000000	0.90000000	1.40000000	1.16720449	140.00000000	98.10000000	152.40000000	185.90000000	140.00000000
44	925.50000000	766.50000000	92.60000000	76.70000000	0.05000000	0.00000000	0.00000000	0.00000000	0.56568542	0.56568542	0.10000000	0.10000000	0.00000000	0.25231325	103.40000000	78.40000000	111.40000000	129.00000000	103.50000000
45	60.50000000	764.50000000	6.10000000	76.50000000	0.01000000	0.00000000	0.00000000	0.00000000	0.00000000	0.00000000	0.00000000	0.00000000	0.00000000	0.11283792	100.00000000	79.00000000	107.00000000	119.00000000	100.00000000
46	1116.50000000	756.50000000	111.70000000	75.70000000	0.01000000	0.00000000	0.00000000	0.00000000	0.00000000	0.00000000	0.00000000	0.00000000	0.00000000	0.11283792	108.00000000	84.00000000	115.00000000	133.00000000	107.80000000
47	1243.50000000	735.50000000	124.40000000	73.50000000	0.37000000	1.29548512	0.30000000	40.24000000	3.20416300	5.51343365	1.30000000	0.30000000	1.30000000	0.68636625	105.10000000	76.00000000	112.90000000	141.10000000	105.10000000
48	942.50000000	752.50000000	94.20000000	75.20000000	0.17000000	0.50852389	0.30000000	29.88000000	1.44852812	2.58246984	0.50000000	0.40000000	0.50000000	0.46524265	107.90000000	79.80000000	116.10000000	139.60000000	107.90000000
49	421.50000000	744.50000000	42.20000000	74.50000000	1.59000000	2.10000000	1.10000000	25.19000000	6.73553383	10.30006948	2.00000000	1.10000000	2.10000000	1.42283199	135.10000000	96.30000000	146.70000000	177.00000000	135.10000000
50	1083.50000000	742.50000000	108.40000000	74.20000000	1.19000000	1.40602655	1.10000000	145.11000000	5.00416300	7.90229304	1.40000000	1.10000000	1.40000000	1.23091635	149.40000000	109.40000000	162.30000000	188.20000000	149.50000000
51	803.50000000	748.50000000	80.40000000	74.90000000	0.14000000	0.59444599	0.30000000	81.68000000	1.97989895	2.88664363	0.60000000	0.30000000	0.60000000	0.42220082	101.00000000	77.10000000	108.60000000	125.10000000	101.10000000
52	53.50000000	736.50000000	5.40000000	73.70000000	1.10000000	1.30000000	1.10000000	2.94000000	5.22842708	7.55291803	1.30000000	1.10000000	1.30000000	1.18345405	80.50000000	61.10000000	87.20000000	97.30000000	80.50000000
53	859.50000000	734.50000000	86.00000000	73.50000000	0.22000000	0.54447241	0.50000000	144.51000000	1.90710677	3.28279423	0.50000000	0.50000000	0.50000000	0.52925674	124.10000000	92.00000000	133.70000000	158.50000000	124.10000000
54	356.50000000	727.50000000	35.60000000	72.80000000	1.84000000	1.90000000	1.40000000	146.11000000	7.31126978	10.42684148	1.80000000	1.30000000	1.90000000	1.53060797	157.00000000	120.30000000	169.80000000	187.60000000	157.00000000
55	1067.50000000	735.50000000	106.80000000	73.50000000	0.05000000	0.00000000	0.00000000	0.00000000	0.80000000	0.80000000	0.40000000	0.00000000	0.00000000	0.25231325	102.40000000	78.80000000	111.40000000	118.00000000	102.40000000
56	1031.50000000	716.50000000	103.20000000	71.70000000	1.57000000	2.24875851	0.90000000	8.24000000	5.33137083	10.35132984	1.90000000	0.90000000	2.20000000	1.41385504	145.60000000	102.40000000	158.90000000	190.90000000	145.60000000
57	299.50000000	720.50000000	30.00000000	72.00000000	0.15000000	0.56164498	0.30000000	130.22000000	1.47279217	2.76970602	0.50000000	0.30000000	0.60000000	0.43701937	109.70000000	81.00000000	117.90000000	142.50000000	109.60000000
58	573.50000000	721.50000000	57.40000000	72.20000000	0.07000000	0.20000000	0.20000000	0.00000000	0.96568542	1.25663706	0.20000000	0.20000000	0.20000000	0.29854107	114.60000000	88.00000000	123.30000000	138.60000000	114.50000000
59	481.50000000	711.50000000	48.20000000	71.20000000	1.24000000	1.80774384	0.90000000	113.96000000	6.94558437	8.74736237	1.70000000	0.90000000	1.80000000	1.25650986	155.40000000	113.30000000	169.50000000	193.10000000	155.40000000
60	645.50000000	709.50000000	64.50000000	71.00000000	0.62000000	1.00000000	0.90000000	105.68000000	3.10710677	5.97316043	0.90000000	0.70000000	1.00000000	0.88848664	167.00000000	122.80000000	183.30000000	199.30000000	167.10000000
61	268.50000000	711.50000000	26.90000000	71.20000000	0.26000000	0.60000000	0.60000000	148.94000000	1.64852812	3.76991118	0.50000000	0.50000000	0.60000000	0.57536274	123.30000000	93.60000000	132.20000000	156.00000000	123.40000000
62	1180.50000000	681.50000000	118.10000000	68.20000000	0.86000000	1.50000000	0.90000000	34.65000000	4.15563489	7.65809966	1.50000000	0.80000000	1.50000000	1.04641579	130.20000000	92.50000000	141.10000000	173.10000000	130.20000000
63	193.50000000	699.50000000	19.40000000	70.00000000	0.82000000	1.30000000	0.80000000	84.89000000	4.01421354	6.69118043	1.30000000	0.70000000	1.30000000	1.02179079	158.20000000	116.90000000	173.10000000	189.80000000	158.20000000
64	906.50000000	703.50000000	90.70000000	70.40000000	0.01000000	0.00000000	0.00000000	0.00000000	0.00000000	0.00000000	0.00000000	0.00000000	0.00000000	0.11283792	106.00000000	85.00000000	113.00000000	125.00000000	106.00000000
65	579.50000000	700.50000000	58.00000000	70.00000000	0.07000000	0.35654311	0.20000000	0.00000000	1.13137083	1.78318896	0.30000000	0.20000000	0.40000000	0.29854107	101.90000000	77.60000000	109.90000000	124.60000000	101.90000000
66	1016.50000000	696.50000000	101.70000000	69.70000000	0.47000000	0.75131493	0.70000000	25.78000000	2.24852812	4.56086542	0.70000000	0.60000000	0.80000000	0.77357778	141.20000000	99.90000000	153.00000000	189.10000000	141.20000000
67	1236.50000000	695.50000000	123.70000000	69.50000000	0.08000000	0.42536750	0.30000000	31.90000000	1.18994948	2.29585895	0.30000000	0.30000000	0.40000000	0.31915382	104.60000000	78.20000000	110.50000000	143.80000000	104.60000000
68	809.50000000	681.50000000	81.00000000	68.20000000	1.30000000	1.80983543	0.90000000	8.34000000	4.53137083	8.75486279	1.70000000	0.80000000	1.80000000	1.28655020	150.50000000	107.80000000	164.10000000	192.50000000	150.50000000
69	1207.50000000	682.50000000	120.80000000	68.20000000	0.32000000	0.69507194	0.60000000	15.33000000	1.82426406	4.07407184	0.50000000	0.50000000	0.70000000	0.63830765	134.90000000	97.50000000	144.90000000	181.30000000	134.90000000
70	616.50000000	683.50000000	61.70000000	68.40000000	0.09000000	0.00000000	0.00000000	0.00000000	0.94142135	0.94142135	0.40000000	0.10000000	0.00000000	0.33851375	109.80000000	83.00000000	118.40000000	135.00000000	109.70000000
71	269.50000000	677.50000000	27.00000000	67.80000000	1.56000000	1.90000000	1.30000000	130.17000000	5.93553383	10.14164966	1.90000000	1.20000000	1.90000000	1.40934513	80.30000000	59.20000000	87.70000000	97.70000000	80.30000000
72	303.50000000	676.50000000	30.40000000	67.70000000	0.01000000	0.00000000	0.00000000	0.00000000	0.00000000	0.00000000	0.00000000	0.00000000	0.00000000	0.11283792	102.00000000	80.00000000	110.00000000	121.00000000	102.30000000
73	409.50000000	675.50000000	41.00000000	67.50000000	0.06000000	0.28284271	0.20000000	45.00000000	0.62426406	1.52807910	0.20000000	0.10000000	0.30000000	0.27639532	104.30000000	81.70000000	112.00000000	125.20000000	104.40000000
74	445.50000000	666.50000000	44.60000000	66.70000000	0.07000000	0.46632547	0.30000000	158.22000000	1.13137083	2.43591964	0.30000000	0.30000000	0.50000000	0.29854107	108.10000000	81.30000000	116.00000000	138.90000000	108.20000000
75	1207.50000000	661.50000000	120.80000000	66.20000000	0.40000000	0.77111549	0.50000000	87.06000000	2.30710677	4.03887421	0.70000000	0.50000000	0.80000000	0.71364965	131.00000000	95.30000000	140.20000000	177.40000000	131.00000000
76	949.50000000	649.50000000	95.00000000	65.00000000	1.04000000	1.50000000	1.10000000	158.15000000	5.35563489	8.21654502	1.40000000	0.90000000	1.50000000	1.15072548	136.90000000	99.20000000	148.80000000	174.20000000	136.90000000
77	327.50000000	651.50000000	32.80000000	65.20000000	0.35000000	0.73750057	0.60000000	81.75000000	2.38994948	4.21299142	0.70000000	0.50000000	0.70000000	0.66755812	121.90000000	91.90000000	131.70000000	150.20000000	121.90000000
78	1108.50000000	646.50000000	110.90000000	64.70000000	0.74000000	1.10000000	1.00000000	116.76000000	3.30710677	6.60108509	0.90000000	0.90000000	1.10000000	0.97066846	137.80000000	98.00000000	149.80000000	180.70000000	137.80000000
79	1016.50000000	649.50000000	101.70000000	65.00000000	0.02000000	0.00000000	0.00000000	0.00000000	0.28284271	0.28284271	0.10000000	0.00000000	0.00000000	0.15957691	109.00000000	84.50000000	116.00000000	135.50000000	108.80000000
80	396.50000000	647.50000000	39.70000000	64.80000000	0.01000000	0.00000000	0.00000000	0.00000000	0.00000000	0.00000000	0.00000000	0.00000000	0.00000000	0.11283792	103.00000000	79.00000000	111.00000000	124.00000000	102.90000000
81	103.50000000	634.50000000	10.40000000	63.50000000	2.18000000	2.30158710	1.30000000	41.89000000	6.94558436	11.53456085	2.20000000	1.30000000	2.30000000	1.66603187	136.40000000	99.40000000	147.80000000	175.00000000	136.40000000
82	58.50000000	622.50000000	5.90000000	62.20000000	2.13000000	2.20000000	1.40000000	105.24000000	7.68700571	11.44979626	2.10000000	1.50000000	2.20000000	1.64681518	134.40000000	99.20000000	145.20000000	170.90000000	134.40000000
83	526.50000000	622.50000000	52.70000000	62.20000000	0.92000000	1.40000000	0.90000000	162.97000000	5.40416301	7.31128766	1.30000000	0.90000000	1.40000000	1.08230328	145.20000000	106.10000000	157.80000000	183.70000000	145.30000000
84	630.50000000	622.50000000	63.10000000	62.20000000	0.01000000	0.00000000	0.00000000	0.00000000	0.00000000	0.00000000	0.00000000	0.00000000	0.00000000	0.11283792	100.00000000	78.00000000	108.00000000	119.00000000	100.30000000
85	979.50000000	610.50000000	98.00000000	61.10000000	4.10000000	2.50000000	2.20000000	175.86000000	10.28111820	14.78052884	2.50000000	2.10000000	2.50000000	2.28479367	156.60000000	116.60000000	170.70000000	189.30000000	156.70000000
86	511.50000000	622.50000000	51.20000000	62.20000000	0.07000000	0.42583261	0.20000000	90.00000000	1.13137083	2.03065356	0.30000000	0.30000000	0.40000000	0.29854107	109.90000000	84.90000000	117.70000000	135.70000000	109.90000000
87	1066.50000000	618.50000000	106.70000000	61.90000000	0.44000000	0.80000000	0.70000000	47.83000000	3.55563489	4.71762642	0.70000000	0.70000000	0.80000000	0.74848206	151.60000000	112.10000000	164.30000000	189.30000000	151.60000000
88	939.50000000	613.50000000	94.00000000	61.40000000	0.88000000	1.30000000	0.70000000	10.48000000	4.07279217	6.42537074	1.30000000	0.70000000	1.30000000	1.05851349	135.80000000	99.50000000	147.00000000	173.20000000	135.80000000
89	589.50000000	613.50000000	59.00000000	61.40000000	0.27000000	0.80000000	0.50000000	21.31000000	2.49705625	4.13862761	0.70000000	0.40000000	0.80000000	0.58632301	107.10000000	79.00000000	116.20000000	134.10000000	107.10000000
90	1013.50000000	606.50000000	101.40000000	60.70000000	0.67000000	1.08288012	0.80000000	9.75000000	3.78994948	5.94866860	0.90000000	0.80000000	1.10000000	0.92361815	140.10000000	102.00000000	152.00000000	179.30000000	140.20000000
91	1206.50000000	607.50000000	120.70000000	60.80000000	0.19000000	0.53378839	0.40000000	0.00000000	1.73137083	2.94865709	0.40000000	0.40000000	0.50000000	0.49184908	109.30000000	78.90000000	117.10000000	148.70000000	109.30000000
92	132.50000000	598.50000000	13.20000000	59.90000000	1.99000000	1.80614967	1.40000000	44.93000000	7.79411250	10.11286597	1.90000000	1.40000000	1.80000000	1.59177470	150.60000000	111.00000000	164.30000000	184.30000000	150.60000000
93	346.50000000	603.50000000	34.60000000	60.40000000	0.44000000	0.91342564	0.50000000	79.67000000	2.36568542	4.53590222	0.70000000	0.50000000	0.90000000	0.74848206	133.00000000	103.90000000	144.00000000	152.40000000	133.00000000
94	829.50000000	599.50000000	83.00000000	60.00000000	0.10000000	0.34947312	0.30000000	137.20000000	1.18994948	2.04334089	0.30000000	0.30000000	0.30000000	0.35682482	102.60000000	78.70000000	109.70000000	128.10000000	102.50000000
95	1200.50000000	589.50000000	120.10000000	59.00000000	0.73000000	1.35348120	0.70000000	64.82000000	3.67279218	6.61559226	1.30000000	0.70000000	1.40000000	0.96408758	126.20000000	89.80000000	135.70000000	173.50000000	126.30000000
96	965.50000000	590.50000000	96.60000000	59.10000000	0.28000000	0.80000000	0.50000000	146.17000000	2.16568542	4.13862761	0.60000000	0.40000000	0.80000000	0.59708213	142.80000000	109.30000000	154.80000000	169.40000000	142.80000000
97	718.50000000	574.50000000	71.90000000	57.50000000	0.03000000	0.00000000	0.00000000	0.00000000	0.56568542	0.56568542	0.10000000	0.10000000	0.00000000	0.19544100	104.00000000	82.30000000	111.70000000	122.70000000	104.20000000
98	694.50000000	566.50000000	69.50000000	56.70000000	0.62000000	0.93379145	0.80000000	33.52000000	2.98994948	5.45497817	0.90000000	0.70000000	0.90000000	0.88848664	152.20000000	112.60000000	166.50000000	182.90000000	152.20000000
99	1268.00000000	559.50000000	126.80000000	56.00000000	0.58000000	1.20670576	0.70000000	29.10000000	2.90710677	6.09632723	0.90000000	0.70000000	1.20000000	0.85934797	127.20000000	89.60000000	136.80000000	176.30000000	127.20000000
100	654.50000000	560.50000000	65.50000000	56.10000000	0.29000000	1.02421341	0.80000000	15.66000000	2.10710677	5.75259995	0.80000000	0.30000000	1.00000000	0.60765078	116.60000000	86.90000000	126.30000000	145.00000000	116.60000000
101	1036.50000000	550.50000000	103.70000000	55.10000000	1.41000000	1.82531643	1.10000000	115.26000000	8.28700572	9.33194852	1.80000000	1.10000000	1.80000000	1.33987602	141.00000000	102.10000000	153.50000000	179.20000000	141.00000000
102	652.50000000	552.50000000	65.20000000	55.20000000	0.22000000	0.60669231	0.50000000	26.54000000	1.93137083	3.48485962	0.60000000	0.40000000	0.60000000	0.52925674	112.90000000	85.80000000	121.70000000	137.50000000	112.80000000
103	108.50000000	545.50000000	10.90000000	54.60000000	2.05000000	2.40000000	1.40000000	54.77000000	8.94974738	12.14564631	2.50000000	1.30000000	2.40000000	1.61559310	81.40000000	60.20000000	89.00000000	98.10000000	81.40000000
104	392.50000000	544.50000000	39.20000000	54.50000000	0.05000000	0.10000000	0.30000000	0.00000000	0.90710677	1.33648928	0.30000000	0.10000000	0.10000000	0.25231325	106.80000000	84.80000000	112.80000000	134.40000000	106.90000000
105	1056.50000000	538.50000000	105.70000000	53.90000000	0.48000000	0.89260979	0.70000000	90.00000000	2.48284271	5.02164319	0.70000000	0.60000000	0.90000000	0.78176402	150.90000000	107.60000000	165.00000000	192.10000000	150.90000000
106	60.50000000	528.50000000	6.10000000	52.90000000	1.87000000	2.14849300	1.10000000	24.22000000	7.06274166	10.47300955	1.90000000	1.30000000	2.10000000	1.54303530	146.10000000	107.50000000	158.30000000	184.80000000	146.10000000
107	740.50000000	536.50000000	74.00000000	53.70000000	0.02000000	0.00000000	0.00000000	0.00000000	0.28284271	0.28284271	0.10000000	0.00000000	0.00000000	0.15957691	105.50000000	82.50000000	113.50000000	125.50000000	105.60000000
108	1019.50000000	526.50000000	102.00000000	52.70000000	0.08000000	0.00000000	0.00000000	0.00000000	0.84852812	0.84852812	0.30000000	0.10000000	0.00000000	0.31915382	104.80000000	78.10000000	112.40000000	134.80000000	104.70000000
109	1027.50000000	526.50000000	102.80000000	52.70000000	0.08000000	0.00000000	0.00000000	0.00000000	0.84852812	0.84852812	0.30000000	0.10000000	0.00000000	0.31915382	104.80000000	78.90000000	112.20000000	133.10000000	104.70000000
110	1097.50000000	520.50000000	109.80000000	52.10000000	0.69000000	1.10000000	0.80000000	175.14000000	4.29705625	6.00628745	1.10000000	0.70000000	1.10000000	0.93730213	136.80000000	97.70000000	148.50000000	179.10000000	136.80000000
111	294.50000000	518.50000000	29.50000000	51.90000000	1.12000000	1.38844090	1.10000000	97.56000000	4.75563489	7.84394864	1.30000000	1.10000000	1.40000000	1.19416426	150.80000000	112.10000000	163.80000000	185.40000000	150.80000000
112	996.50000000	520.50000000	99.70000000	52.10000000	2.03000000	2.60000000	1.70000000	119.60000000	11.95391039	13.65720509	2.20000000	1.80000000	2.60000000	1.60769284	79.80000000	59.20000000	87.00000000	97.00000000	79.80000000
113	684.50000000	512.50000000	68.50000000	51.20000000	1.28000000	1.70000000	1.30000000	131.22000000	7.89116873	9.46671261	1.70000000	1.30000000	1.70000000	1.27661530	87.20000000	65.70000000	95.30000000	102.60000000	87.30000000
114	1028.50000000	510.50000000	102.90000000	51.10000000	0.06000000	4.00662918	0.10000000	45.04000000	0.84852812	16.04731909	0.30000000	0.10000000	4.00000000	0.27639532	102.20000000	77.50000000	110.70000000	123.20000000	102.20000000
115	401.50000000	504.50000000	40.20000000	50.50000000	0.36000000	0.70000000	0.50000000	45.00000000	2.04852812	3.79613689	0.60000000	0.60000000	0.70000000	0.67702750	143.80000000	109.30000000	155.30000000	175.30000000	143.80000000
116	608.50000000	502.50000000	60.90000000	50.20000000	0.20000000	0.52917118	0.40000000	80.73000000	1.58994948	2.93319792	0.50000000	0.40000000	0.50000000	0.50462650	111.40000000	86.30000000	119.80000000	133.00000000	111.30000000
117	833.50000000	497.50000000	83.40000000	49.80000000	0.39000000	0.75097990	0.60000000	40.39000000	2.87279217	4.25749084	0.70000000	0.60000000	0.80000000	0.70467256	139.60000000	102.20000000	151.70000000	175.30000000	139.60000000
118	710.50000000	489.50000000	71.00000000	49.00000000	0.01000000	0.00000000	0.00000000	0.00000000	0.00000000	0.00000000	0.00000000	0.00000000	0.00000000	0.11283792	100.00000000	75.00000000	108.00000000	123.00000000	99.80000000
119	1069.50000000	489.50000000	107.00000000	49.00000000	0.01000000	0.00000000	0.00000000	0.00000000	0.00000000	0.00000000	0.00000000	0.00000000	0.00000000	0.11283792	101.00000000	74.00000000	110.00000000	124.00000000	100.80000000
120	640.50000000	478.50000000	64.00000000	47.90000000	0.02000000	0.00000000	0.00000000	0.00000000	0.28284271	0.28284271	0.10000000	0.00000000	0.00000000	0.15957691	104.00000000	79.00000000	113.00000000	123.00000000	104.00000000
121	760.50000000	465.50000000	76.00000000	46.60000000	0.46000000	1.10000000	0.80000000	94.63000000	3.94558436	6.00628745	1.20000000	0.70000000	1.10000000	0.76530399	105.60000000	78.30000000	115.10000000	128.50000000	105.60000000
122	957.50000000	460.50000000	95.80000000	46.10000000	0.77000000	1.28048115	0.80000000	96.72000000	3.53137083	6.62347106	1.10000000	0.70000000	1.30000000	0.99014870	149.60000000	108.70000000	163.00000000	188.60000000	149.70000000
123	368.50000000	459.50000000	36.90000000	46.00000000	0.53000000	0.90000000	0.70000000	76.17000000	2.78994948	5.04620245	0.80000000	0.70000000	0.90000000	0.82147243	151.20000000	111.10000000	165.00000000	185.20000000	151.20000000
124	582.50000000	457.50000000	58.20000000	45.80000000	0.18000000	0.50774236	0.50000000	11.15000000	2.03847760	3.16596270	0.50000000	0.40000000	0.50000000	0.47873074	102.70000000	78.20000000	111.60000000	120.80000000	102.70000000
125	698.50000000	456.50000000	69.90000000	45.70000000	0.02000000	0.00000000	0.00000000	0.00000000	0.28284271	0.28284271	0.10000000	0.00000000	0.00000000	0.15957691	100.50000000	76.50000000	108.50000000	119.50000000	100.20000000
126	1231.50000000	451.50000000	123.20000000	45.20000000	0.62000000	1.20000000	0.80000000	121.86000000	3.93137083	6.34617584	1.00000000	0.70000000	1.20000000	0.88848664	129.30000000	93.10000000	139.20000000	173.30000000	129.30000000
127	1052.50000000	441.50000000	105.20000000	44.20000000	0.93000000	1.22957821	1.00000000	15.27000000	4.15563489	7.02300529	1.10000000	0.90000000	1.20000000	1.08816946	147.50000000	105.50000000	161.70000000	184.70000000	147.50000000
128	771.50000000	441.50000000	77.20000000	44.20000000	0.32000000	0.69507194	0.60000000	74.67000000	1.82426406	4.07407184	0.50000000	0.50000000	0.70000000	0.63830765	124.20000000	93.90000000	132.90000000	158.10000000	124.10000000
129	138.50000000	414.50000000	13.90000000	41.50000000	1.57000000	3.14822559	0.60000000	45.50000000	7.91543272	13.18093361	3.00000000	0.60000000	3.10000000	1.41385504	115.10000000	89.30000000	124.40000000	134.60000000	115.10000000
130	1266.50000000	419.50000000	126.70000000	42.00000000	0.89000000	1.40000000	0.80000000	19.33000000	4.57989895	7.04063244	1.30000000	0.80000000	1.40000000	1.06451078	135.70000000	98.00000000	146.10000000	181.20000000	135.70000000
131	333.50000000	418.50000000	33.40000000	41.90000000	0.59000000	1.00000000	0.80000000	37.45000000	3.03847758	5.67233358	1.00000000	0.70000000	1.00000000	0.86672448	154.20000000	113.00000000	168.60000000	188.60000000	154.20000000
132	1242.50000000	411.50000000	124.20000000	41.20000000	1.50000000	2.30000000	1.00000000	160.09000000	7.86274166	10.77353731	2.30000000	0.90000000	2.30000000	1.38197660	129.80000000	94.60000000	139.80000000	170.00000000	129.80000000
133	593.50000000	417.50000000	59.40000000	41.80000000	0.03000000	0.00000000	0.00000000	0.00000000	0.56568542	0.56568542	0.10000000	0.10000000	0.00000000	0.19544100	101.70000000	77.70000000	109.70000000	121.30000000	101.40000000
134	517.50000000	413.50000000	51.80000000	41.40000000	1.12000000	1.60000000	0.80000000	89.80000000	4.95563489	7.75075857	1.60000000	0.80000000	1.60000000	1.19416426	166.80000000	126.30000000	181.50000000	197.60000000	166.80000000
135	713.50000000	415.50000000	71.40000000	41.60000000	0.30000000	0.69514937	0.50000000	25.68000000	1.82426406	3.77974109	0.50000000	0.50000000	0.70000000	0.61803872	124.00000000	90.90000000	134.40000000	157.20000000	124.00000000
136	732.50000000	409.50000000	73.20000000	41.00000000	0.20000000	0.57591100	0.40000000	18.38000000	1.70710677	3.09086961	0.50000000	0.40000000	0.60000000	0.50462650	116.80000000	89.00000000	126.20000000	142.20000000	116.90000000
137	482.50000000	408.50000000	48.20000000	40.90000000	0.02000000	0.00000000	0.00000000	0.00000000	0.28284271	0.28284271	0.10000000	0.00000000	0.00000000	0.15957691	101.50000000	75.50000000	110.50000000	122.50000000	101.40000000
138	117.50000000	395.50000000	11.80000000	39.60000000	1.64000000	1.70000000	1.40000000	66.21000000	5.34558437	9.76175249	1.60000000	1.20000000	1.70000000	1.44503040	162.70000000	127.30000000	175.70000000	188.70000000	162.70000000
139	1223.50000000	395.50000000	122.40000000	39.60000000	1.43000000	1.80000000	1.00000000	69.34000000	6.88700571	8.97691424	1.90000000	1.10000000	1.80000000	1.34934523	144.90000000	104.00000000	157.20000000	189.20000000	145.00000000
140	927.50000000	367.50000000	92.80000000	36.80000000	10.74000000	17.40728607	1.10000000	67.64000000	42.07766919	70.13451455	14.40000000	1.10000000	17.40000000	3.69791735	135.80000000	98.60000000	147.00000000	176.00000000	135.80000000
141	734.50000000	389.50000000	73.50000000	39.00000000	0.08000000	0.10000000	0.40000000	0.00000000	1.02426406	1.71568393	0.40000000	0.10000000	0.10000000	0.31915382	113.90000000	89.20000000	122.40000000	134.80000000	113.90000000
142	438.50000000	387.50000000	43.90000000	38.80000000	0.19000000	0.50628161	0.40000000	98.91000000	1.78994948	2.85696521	0.50000000	0.40000000	0.50000000	0.49184908	120.90000000	92.20000000	130.50000000	147.50000000	121.00000000
143	669.50000000	383.50000000	67.00000000	38.40000000	0.53000000	0.94492846	0.80000000	117.71000000	2.70710677	5.49131259	0.80000000	0.70000000	0.90000000	0.82147243	135.70000000	100.00000000	147.50000000	169.00000000	135.80000000
144	216.50000000	384.50000000	21.70000000	38.50000000	0.15000000	0.56457953	0.30000000	33.56000000	1.47279217	2.78012922	0.40000000	0.30000000	0.60000000	0.43701937	110.30000000	82.70000000	119.70000000	134.50000000	110.30000000
145	381.50000000	383.50000000	38.10000000	38.40000000	0.43000000	0.75232744	0.70000000	50.48000000	2.58994948	4.56410210	0.80000000	0.60000000	0.80000000	0.73992770	131.00000000	98.70000000	141.70000000	160.40000000	131.00000000
146	502.50000000	380.50000000	50.20000000	38.10000000	0.67000000	1.20000000	0.70000000	39.28000000	3.34558438	6.07282316	1.10000000	0.70000000	1.20000000	0.92361815	107.70000000	82.00000000	116.60000000	128.70000000	107.60000000
147	576.50000000	371.50000000	57.70000000	37.10000000	0.40000000	0.80000000	0.60000000	70.30000000	2.24852812	4.42069843	0.70000000	0.60000000	0.80000000	0.71364965	133.80000000	100.00000000	144.90000000	165.30000000	133.80000000
148	598.50000000	367.50000000	59.90000000	36.80000000	0.07000000	0.46632533	0.30000000	111.78000000	1.13137083	2.43591915	0.30000000	0.30000000	0.50000000	0.29854107	104.00000000	79.90000000	112.40000000	124.10000000	104.00000000
149	605.50000000	362.50000000	60.60000000	36.20000000	0.10000000	0.50000000	0.30000000	106.21000000	1.41421353	2.55269989	0.40000000	0.30000000	0.50000000	0.35682482	101.00000000	78.60000000	108.70000000	120.70000000	101.10000000
150	1263.50000000	361.50000000	126.40000000	36.10000000	0.71000000	1.12352333	0.70000000	75.95000000	3.57989895	5.80628773	1.10000000	0.70000000	1.10000000	0.95078919	136.20000000	96.70000000	147.20000000	183.00000000	136.20000000
151	432.50000000	358.50000000	43.20000000	35.90000000	0.57000000	1.02566576	0.50000000	91.60000000	2.93137083	4.93635785	1.00000000	0.50000000	1.00000000	0.85190759	116.10000000	84.90000000	125.80000000	147.70000000	116.00000000
152	831.50000000	355.50000000	83.20000000	35.60000000	0.41000000	0.70000000	0.70000000	48.97000000	3.29705625	4.39822972	0.70000000	0.70000000	0.70000000	0.72251520	139.70000000	102.50000000	151.60000000	176.30000000	139.70000000
153	1102.50000000	345.50000000	110.20000000	34.60000000	0.61000000	1.11349745	0.60000000	151.68000000	3.21421354	5.50466528	1.10000000	0.70000000	1.10000000	0.88129230	133.90000000	95.40000000	144.80000000	178.80000000	133.90000000
154	1166.50000000	337.50000000	116.70000000	33.80000000	0.87000000	1.20000000	0.90000000	62.13000000	4.43847760	6.63104765	1.20000000	0.90000000	1.20000000	1.05248202	155.80000000	113.10000000	170.20000000	193.80000000	155.80000000
155	726.50000000	337.50000000	72.70000000	33.80000000	0.03000000	0.00000000	0.00000000	0.00000000	0.56568542	0.56568542	0.10000000	0.10000000	0.00000000	0.19544100	106.70000000	82.70000000	114.70000000	127.70000000	106.60000000
156	833.50000000	334.50000000	83.40000000	33.50000000	0.01000000	0.00000000	0.00000000	0.00000000	0.00000000	0.00000000	0.00000000	0.00000000	0.00000000	0.11283792	106.00000000	82.00000000	114.00000000	127.00000000	105.90000000
157	68.50000000	326.50000000	6.90000000	32.60000000	0.35000000	0.80000000	0.60000000	55.62000000	2.38994948	4.42069843	0.70000000	0.50000000	0.80000000	0.66755812	132.60000000	101.70000000	142.40000000	162.40000000	132.50000000
158	119.50000000	309.50000000	12.00000000	31.00000000	0.74000000	1.20000000	0.90000000	24.09000000	3.58994948	6.63104765	1.10000000	0.70000000	1.20000000	0.97066846	142.50000000	102.40000000	155.90000000	179.00000000	142.50000000
159	1103.50000000	311.50000000	110.40000000	31.20000000	0.33000000	0.66400261	0.60000000	31.04000000	3.03847760	3.97352701	0.70000000	0.60000000	0.70000000	0.64820448	130.50000000	94.90000000	140.70000000	171.30000000	130.50000000
160	539.50000000	301.50000000	54.00000000	30.20000000	0.34000000	0.63866811	0.60000000	52.79000000	1.96568542	3.89233876	0.60000000	0.50000000	0.60000000	0.65795246	131.00000000	96.80000000	142.60000000	161.40000000	131.00000000
161	762.50000000	289.50000000	76.20000000	29.00000000	0.79000000	1.20000000	0.80000000	104.83000000	3.55563488	6.34617584	1.10000000	0.80000000	1.20000000	1.00292534	150.50000000	109.40000000	164.50000000	186.40000000	150.50000000
162	633.50000000	287.50000000	63.40000000	28.80000000	0.02000000	0.00000000	0.00000000	0.00000000	0.28284271	0.28284271	0.10000000	0.00000000	0.00000000	0.15957691	102.50000000	79.50000000	111.00000000	119.50000000	102.60000000
163	918.50000000	274.50000000	91.90000000	27.50000000	1.10000000	1.40000000	1.00000000	102.68000000	4.89705625	7.59227379	1.30000000	0.90000000	1.40000000	1.18345405	155.50000000	113.20000000	169.60000000	193.90000000	155.50000000
164	515.50000000	269.50000000	51.60000000	27.00000000	0.84000000	1.17968016	0.80000000	174.62000000	4.04852812	6.27667273	1.10000000	0.70000000	1.20000000	1.03417659	152.00000000	111.00000000	166.50000000	185.10000000	152.10000000
165	902.50000000	266.50000000	90.20000000	26.70000000	0.11000000	0.60000000	0.10000000	180.00000000	1.36568542	2.49000307	0.60000000	0.10000000	0.60000000	0.37424103	135.20000000	103.00000000	146.50000000	161.80000000	135.20000000
166	1015.50000000	261.50000000	101.60000000	26.20000000	0.13000000	0.45060763	0.40000000	166.39000000	1.30710677	2.67462801	0.30000000	0.30000000	0.50000000	0.40684289	111.20000000	81.50000000	118.90000000	149.30000000	111.20000000
167	803.50000000	252.50000000	80.40000000	25.20000000	0.47000000	0.80000000	0.70000000	36.69000000	2.98994948	4.71762642	0.70000000	0.70000000	0.80000000	0.77357778	139.70000000	102.00000000	151.70000000	176.70000000	139.70000000
168	966.50000000	247.50000000	96.70000000	24.80000000	0.97000000	1.31618080	1.00000000	154.52000000	3.78994948	7.31043538	1.10000000	0.90000000	1.30000000	1.11132460	154.00000000	112.60000000	167.70000000	191.90000000	154.00000000
169	255.50000000	238.50000000	25.60000000	23.90000000	0.59000000	0.96184349	0.70000000	86.27000000	3.87279218	5.25328875	0.90000000	0.70000000	1.00000000	0.86672448	153.80000000	113.90000000	167.40000000	188.40000000	153.80000000
170	400.50000000	232.50000000	40.10000000	23.20000000	0.30000000	0.70000000	0.50000000	90.12000000	2.35563489	3.79613689	0.70000000	0.50000000	0.70000000	0.61803872	109.00000000	82.20000000	117.30000000	136.90000000	109.00000000
171	1253.50000000	228.50000000	125.40000000	22.90000000	0.84000000	1.38955545	0.80000000	43.09000000	4.37989895	7.00394292	1.30000000	0.80000000	1.40000000	1.03417659	138.40000000	98.80000000	149.90000000	182.80000000	138.40000000
172	322.50000000	229.50000000	32.20000000	23.00000000	0.27000000	0.61107106	0.50000000	28.89000000	1.98994948	3.49925882	0.50000000	0.50000000	0.60000000	0.58632301	128.60000000	97.40000000	139.30000000	156.30000000	128.70000000
173	949.50000000	229.50000000	95.00000000	23.00000000	0.52000000	0.79120293	0.80000000	82.52000000	2.58994948	4.99894962	0.70000000	0.70000000	0.80000000	0.81368579	137.30000000	98.20000000	149.40000000	177.50000000	137.30000000
174	854.50000000	222.50000000	85.50000000	22.20000000	0.06000000	4.00662918	0.10000000	134.96000000	0.84852812	16.04731909	0.30000000	0.10000000	4.00000000	0.27639532	103.80000000	79.20000000	112.00000000	126.20000000	103.80000000
175	98.50000000	213.50000000	9.90000000	21.40000000	0.42000000	0.80000000	0.70000000	32.42000000	2.81421353	4.71762642	0.70000000	0.60000000	0.80000000	0.73127328	121.90000000	89.10000000	131.50000000	157.80000000	121.80000000
176	246.50000000	206.50000000	24.70000000	20.70000000	0.04000000	0.00000000	0.00000000	0.00000000	0.60000000	0.60000000	0.30000000	0.00000000	0.00000000	0.22567583	104.80000000	76.80000000	113.80000000	131.20000000	104.70000000
177	982.50000000	203.50000000	98.20000000	20.40000000	0.42000000	0.80000000	0.70000000	81.92000000	3.32132030	4.71762642	0.80000000	0.70000000	0.80000000	0.73127328	131.50000000	93.80000000	142.40000000	174.80000000	131.60000000
178	146.50000000	197.50000000	14.70000000	19.80000000	1.32000000	1.80000000	1.00000000	163.88000000	5.77989895	8.97691424	1.80000000	0.90000000	1.80000000	1.29640896	149.10000000	107.10000000	163.00000000	187.90000000	149.10000000
179	470.50000000	196.50000000	47.10000000	19.70000000	1.13000000	1.44882402	1.10000000	62.28000000	4.57989895	8.04490502	1.10000000	1.10000000	1.40000000	1.19948351	150.40000000	110.00000000	163.80000000	187.70000000	150.40000000
180	852.50000000	196.50000000	85.20000000	19.70000000	1.31000000	1.71069698	1.00000000	117.21000000	6.52132031	8.66289055	1.80000000	1.00000000	1.70000000	1.29148899	143.10000000	101.90000000	155.90000000	185.80000000	143.20000000
181	1125.50000000	199.50000000	112.60000000	20.00000000	0.01000000	0.00000000	0.00000000	0.00000000	0.00000000	0.00000000	0.00000000	0.00000000	0.00000000	0.11283792	102.00000000	82.00000000	108.00000000	123.00000000	101.90000000
182	250.50000000	189.50000000	25.10000000	18.90000000	1.66000000	2.00464878	1.30000000	59.28000000	6.36984843	10.50020715	1.90000000	1.20000000	2.00000000	1.45381486	144.60000000	105.90000000	156.90000000	182.30000000	144.60000000
183	13.50000000	189.50000000	1.40000000	18.90000000	0.37000000	0.82146521	0.60000000	31.84000000	2.58994948	4.49280573	0.80000000	0.50000000	0.80000000	0.68636625	118.80000000	91.10000000	127.60000000	146.50000000	118.80000000
184	352.50000000	189.50000000	35.20000000	18.90000000	0.35000000	0.71085610	0.50000000	20.32000000	2.33137083	3.83291002	0.70000000	0.50000000	0.70000000	0.66755812	135.90000000	101.70000000	147.10000000	168.30000000	135.90000000
185	732.50000000	171.50000000	73.20000000	17.20000000	0.18000000	0.65496941	0.40000000	73.50000000	1.56568542	3.36286132	0.40000000	0.40000000	0.70000000	0.47873074	106.30000000	79.90000000	115.60000000	127.20000000	106.20000000
186	111.50000000	165.50000000	11.20000000	16.60000000	0.63000000	1.07055168	0.70000000	72.93000000	3.33137083	5.62342939	0.90000000	0.70000000	1.10000000	0.89562320	155.60000000	116.00000000	169.10000000	189.70000000	155.60000000
187	491.50000000	166.50000000	49.20000000	16.70000000	1.56000000	1.80670834	1.50000000	156.44000000	8.92548332	10.41068584	2.00000000	1.40000000	1.80000000	1.40934513	82.80000000	61.70000000	90.50000000	98.10000000	82.80000000
188	258.50000000	154.50000000	25.90000000	15.50000000	1.37000000	2.12912407	0.90000000	68.97000000	6.45269113	9.91219197	2.00000000	0.90000000	2.10000000	1.32073395	129.50000000	96.40000000	140.40000000	159.60000000	129.50000000
189	1091.50000000	155.50000000	109.20000000	15.60000000	0.52000000	0.94310274	0.80000000	40.82000000	3.13137083	5.48534971	0.90000000	0.70000000	0.90000000	0.81368579	138.30000000	100.20000000	149.50000000	180.20000000	138.30000000
190	512.50000000	151.50000000	51.20000000	15.20000000	0.93000000	1.23321333	0.90000000	17.88000000	3.53137083	6.74262905	1.20000000	0.70000000	1.20000000	1.08816946	152.00000000	111.30000000	165.50000000	189.60000000	152.00000000
191	1096.50000000	128.50000000	109.70000000	12.90000000	0.82000000	1.30000000	0.80000000	171.56000000	4.75563489	6.69118043	1.30000000	0.80000000	1.30000000	1.02179079	140.40000000	100.00000000	152.80000000	182.30000000	140.40000000
192	1112.50000000	129.50000000	111.20000000	13.00000000	0.16000000	0.70354700	0.50000000	19.54000000	1.56568542	3.80813996	0.50000000	0.30000000	0.70000000	0.45135167	129.60000000	91.70000000	140.30000000	173.20000000	129.50000000
193	728.50000000	123.50000000	72.90000000	12.40000000	2.36000000	2.30000000	2.00000000	153.12000000	10.69116873	13.52529198	2.00000000	1.70000000	2.30000000	1.73344897	85.40000000	63.20000000	93.40000000	103.40000000	85.50000000
194	1119.50000000	117.50000000	112.00000000	11.80000000	0.57000000	0.90000000	0.80000000	135.66000000	2.84852812	5.34532850	0.80000000	0.70000000	0.90000000	0.85190759	140.50000000	99.90000000	152.60000000	184.80000000	140.50000000
195	722.50000000	113.50000000	72.20000000	11.40000000	0.10000000	0.42750115	0.30000000	135.00000000	1.04852812	2.30309653	0.30000000	0.30000000	0.40000000	0.35682482	102.50000000	76.80000000	111.10000000	124.50000000	102.40000000
196	681.50000000	105.50000000	68.20000000	10.60000000	0.03000000	0.00000000	0.00000000	0.00000000	0.56568542	0.56568542	0.10000000	0.10000000	0.00000000	0.19544100	108.30000000	86.30000000	115.70000000	128.70000000	108.40000000
197	1112.50000000	104.50000000	111.20000000	10.50000000	0.35000000	0.73661952	0.60000000	114.94000000	2.22426406	4.21008874	0.70000000	0.40000000	0.70000000	0.66755812	141.40000000	100.90000000	153.50000000	184.90000000	141.40000000
198	731.50000000	89.50000000	73.20000000	9.00000000	0.05000000	0.00000000	0.00000000	0.00000000	0.54142135	0.54142135	0.20000000	0.10000000	0.00000000	0.25231325	104.60000000	75.00000000	114.40000000	132.00000000	104.60000000
199	742.50000000	89.50000000	74.20000000	9.00000000	0.04000000	4.58356171	0.10000000	176.13000000	0.84852812	18.35215706	0.30000000	0.10000000	4.60000000	0.22567583	102.20000000	78.80000000	110.00000000	122.20000000	102.10000000
200	282.50000000	81.50000000	28.20000000	8.20000000	1.16000000	1.40000000	1.20000000	179.10000000	5.60416301	8.18022842	1.40000000	1.10000000	1.40000000	1.21530156	161.20000000	117.00000000	176.90000000	196.10000000	161.20000000
201	1054.50000000	82.50000000	105.50000000	8.20000000	0.57000000	1.09513893	0.80000000	147.20000000	3.47279218	5.98990915	0.80000000	0.80000000	1.10000000	0.85190759	138.90000000	99.20000000	151.10000000	180.20000000	138.90000000
202	693.50000000	77.50000000	69.40000000	7.80000000	0.01000000	0.00000000	0.00000000	0.00000000	0.00000000	0.00000000	0.00000000	0.00000000	0.00000000	0.11283792	102.00000000	75.00000000	109.00000000	134.00000000	101.70000000
203	521.50000000	77.50000000	52.20000000	7.80000000	0.03000000	0.00000000	0.00000000	0.00000000	0.56568542	0.56568542	0.10000000	0.10000000	0.00000000	0.19544100	105.30000000	85.00000000	112.70000000	120.00000000	105.20000000
204	211.50000000	73.50000000	21.20000000	7.40000000	0.53000000	0.82391338	0.80000000	60.87000000	2.73137083	5.10195093	0.80000000	0.70000000	0.80000000	0.82147243	153.80000000	113.40000000	167.80000000	187.10000000	153.80000000
205	709.50000000	60.50000000	71.00000000	6.10000000	0.16000000	0.90000000	0.10000000	0.00000000	2.04852812	3.66875064	0.90000000	0.10000000	0.90000000	0.45135167	128.00000000	97.50000000	139.20000000	149.90000000	127.90000000
206	62.50000000	42.50000000	6.20000000	4.20000000	1.27000000	1.70000000	1.20000000	24.38000000	5.86274166	9.17845217	1.50000000	1.10000000	1.70000000	1.27161874	160.90000000	119.60000000	175.10000000	196.00000000	160.90000000
207	1109.50000000	41.50000000	111.00000000	4.20000000	0.07000000	0.30000000	0.20000000	98.13000000	0.76568542	1.58654396	0.20000000	0.20000000	0.30000000	0.29854107	106.00000000	81.40000000	113.30000000	132.90000000	106.00000000
208	300.50000000	36.50000000	30.10000000	3.70000000	0.23000000	0.80000000	0.40000000	104.90000000	1.90710676	3.87537929	0.80000000	0.40000000	0.80000000	0.54115164	109.00000000	82.30000000	117.40000000	135.50000000	109.00000000
209	369.50000000	33.50000000	37.00000000	3.40000000	1.34000000	1.74073086	1.20000000	91.85000000	8.96396091	9.31683516	1.80000000	1.10000000	1.70000000	1.30619332	77.80000000	58.00000000	84.90000000	93.90000000	77.90000000
210	306.50000000	26.50000000	30.70000000	2.70000000	0.44000000	1.16625538	0.60000000	98.55000000	2.77989893	5.69237618	1.00000000	0.50000000	1.20000000	0.74848206	110.80000000	84.20000000	119.20000000	137.20000000	110.80000000
211	721.50000000	24.50000000	72.20000000	2.50000000	0.01000000	0.00000000	0.00000000	0.00000000	0.00000000	0.00000000	0.00000000	0.00000000	0.00000000	0.11283792	100.00000000	76.00000000	107.00000000	125.00000000	99.80000000
212	1167.50000000	23.50000000	116.80000000	2.40000000	0.20000000	0.65468016	0.30000000	4.07000000	1.42426406	3.10363329	0.50000000	0.30000000	0.70000000	0.50462650	123.40000000	93.60000000	130.50000000	164.60000000	123.40000000
213	331.50000000	18.50000000	33.10000000	1.90000000	0.02000000	0.00000000	0.00000000	0.00000000	0.28284271	0.28284271	0.10000000	0.00000000	0.00000000	0.15957691	103.50000000	82.00000000	110.50000000	124.50000000	103.60000000
214	1254.50000000	13.50000000	125.50000000	1.40000000	0.85000000	1.12218018	1.00000000	41.40000000	3.30710677	6.67255150	0.90000000	0.90000000	1.10000000	1.04031419	153.10000000	114.70000000	165.50000000	189.80000000	153.10000000
215	400.50000000	13.00000000	40.10000000	1.30000000	1.53000000	2.00000000	1.30000000	109.01000000	6.75979789	10.48420720	2.10000000	1.20000000	2.00000000	1.39572795	84.90000000	63.30000000	92.30000000	103.80000000	84.90000000
216	423.50000000	10.50000000	42.40000000	1.10000000	0.06000000	4.00662918	0.10000000	45.04000000	0.84852812	16.04731909	0.30000000	0.10000000	4.00000000	0.27639532	106.80000000	82.80000000	113.80000000	132.50000000	106.70000000

#3
liczenie
obiektów (w)	udział punktów	pole obrazu(mm²)
	24	100.00	12288.0000
nr.	x(pix.):	y(pix.):	x(mm):	y(mm):	powierzchnia:(mm²)	długość:(mm)	szerokość:(mm)	kąt:(°)	obwód:(mm)	obwód C.:(mm)	średnica Fereta H(mm)	średnica Fereta V(mm)	średn. Martina:(mm)	średn. sitowa:(mm)	średnia jaskrawość	R	G	B	Y
1	973.50000000	882.50000000	97.40000000	88.20000000	1.11000000	1.40000000	1.10000000	34.08000000	5.34558437	7.88228151	1.30000000	1.10000000	1.40000000	1.18882122	148.40000000	113.10000000	162.00000000	171.80000000	148.50000000
2	145.50000000	827.50000000	14.60000000	82.80000000	0.55000000	1.04841290	0.60000000	40.80000000	3.72132030	5.27489658	1.10000000	0.60000000	1.00000000	0.83682839	164.90000000	130.40000000	177.70000000	189.90000000	164.90000000
3	1222.50000000	766.50000000	122.20000000	76.70000000	0.94000000	1.40000000	0.90000000	14.51000000	4.27279218	7.31128766	1.40000000	0.70000000	1.40000000	1.09400419	150.50000000	112.20000000	164.60000000	178.30000000	150.50000000
4	328.50000000	720.50000000	32.90000000	72.00000000	1.99000000	2.13905697	1.20000000	53.83000000	6.53553386	10.69842277	2.20000000	1.10000000	2.10000000	1.59177470	169.40000000	139.50000000	179.30000000	196.60000000	169.40000000
5	943.50000000	699.50000000	94.40000000	70.00000000	0.62000000	1.11717329	0.70000000	86.45000000	3.75563489	5.78428818	1.10000000	0.70000000	1.10000000	0.88848664	158.00000000	129.10000000	169.00000000	177.40000000	158.00000000
6	718.50000000	675.50000000	71.90000000	67.50000000	0.98000000	1.40000000	0.90000000	34.25000000	3.70710677	7.31128766	1.10000000	0.90000000	1.40000000	1.11703839	159.40000000	123.80000000	172.70000000	184.50000000	159.40000000
7	205.50000000	621.50000000	20.60000000	62.20000000	1.64000000	2.17898026	0.90000000	0.94000000	6.57989895	10.09487380	2.10000000	0.90000000	2.20000000	1.44503040	167.70000000	132.20000000	180.00000000	197.70000000	167.70000000
8	851.50000000	616.50000000	85.20000000	61.70000000	0.47000000	0.90000000	0.70000000	167.45000000	3.32132031	5.04620245	0.80000000	0.70000000	0.90000000	0.77357778	134.30000000	111.00000000	144.90000000	140.70000000	134.30000000
9	1214.50000000	588.50000000	121.50000000	58.90000000	0.71000000	1.90000000	0.60000000	52.01000000	4.68700571	8.39456374	1.90000000	0.60000000	1.90000000	0.95078919	132.80000000	103.80000000	143.50000000	154.00000000	132.80000000
10	408.50000000	549.50000000	40.90000000	55.00000000	0.49000000	0.98064499	0.80000000	122.55000000	2.64852812	5.60846393	0.70000000	0.70000000	1.00000000	0.78986542	176.10000000	142.50000000	188.80000000	197.50000000	176.00000000
11	849.50000000	475.50000000	85.00000000	47.60000000	0.63000000	1.27728748	1.10000000	32.36000000	3.24852812	7.47885650	1.20000000	0.50000000	1.30000000	0.89562320	145.60000000	115.90000000	156.70000000	166.80000000	145.60000000
12	822.50000000	453.50000000	82.20000000	45.40000000	0.16000000	0.42775488	0.40000000	70.35000000	1.22426406	2.60119961	0.40000000	0.30000000	0.40000000	0.45135167	119.40000000	100.90000000	128.20000000	123.30000000	119.50000000
13	1156.50000000	432.50000000	115.70000000	43.20000000	1.79000000	1.83036423	1.10000000	49.85000000	5.74558438	9.34954543	1.90000000	1.10000000	1.80000000	1.50966844	187.30000000	154.60000000	198.40000000	216.10000000	187.30000000
14	581.50000000	406.50000000	58.20000000	40.70000000	0.41000000	0.74690032	0.60000000	74.80000000	2.13137082	4.24400499	0.70000000	0.60000000	0.70000000	0.72251520	153.50000000	122.20000000	165.60000000	174.10000000	153.60000000
15	815.50000000	361.50000000	81.60000000	36.10000000	0.64000000	1.47869034	0.60000000	41.02000000	3.29705625	6.82553664	1.40000000	0.50000000	1.50000000	0.90270333	120.90000000	99.30000000	129.20000000	134.80000000	120.90000000
16	69.50000000	288.50000000	7.00000000	28.90000000	1.44000000	1.81094265	1.20000000	137.90000000	6.20416301	9.55677019	1.80000000	1.10000000	1.80000000	1.35405500	132.30000000	104.00000000	141.00000000	162.00000000	132.30000000
17	78.50000000	239.50000000	7.90000000	24.00000000	0.78000000	1.30000000	0.80000000	62.64000000	3.38994948	6.69118043	1.10000000	0.70000000	1.30000000	0.99655750	153.10000000	119.60000000	165.30000000	178.10000000	153.10000000
18	181.50000000	151.50000000	18.20000000	15.20000000	1.96000000	2.17779789	1.20000000	87.18000000	8.32132030	10.83516221	2.10000000	1.10000000	2.20000000	1.57973083	143.40000000	109.20000000	154.40000000	176.30000000	143.40000000
19	418.50000000	148.50000000	41.90000000	14.90000000	1.03000000	2.10299339	0.80000000	59.15000000	4.77989893	9.58545667	1.90000000	0.70000000	2.10000000	1.14517978	148.30000000	113.60000000	159.20000000	183.70000000	148.30000000
20	181.50000000	124.50000000	18.20000000	12.50000000	1.28000000	1.82719383	0.90000000	15.87000000	5.35563489	8.81715447	1.80000000	0.90000000	1.80000000	1.27661530	127.10000000	96.20000000	136.50000000	160.00000000	127.20000000
21	1062.50000000	111.50000000	106.20000000	11.20000000	0.19000000	0.50926147	0.40000000	2.85000000	1.64852812	2.86685029	0.40000000	0.40000000	0.50000000	0.49184908	117.50000000	93.10000000	125.60000000	139.40000000	117.40000000
22	230.50000000	106.50000000	23.10000000	10.70000000	0.72000000	1.25771923	0.70000000	34.04000000	3.13137083	6.27578998	0.90000000	0.90000000	1.30000000	0.95746147	138.50000000	102.30000000	149.40000000	176.60000000	138.50000000
23	332.50000000	31.50000000	33.20000000	3.20000000	0.22000000	0.61182871	0.40000000	76.23000000	1.56568542	3.21368003	0.50000000	0.40000000	0.60000000	0.52925674	112.80000000	93.40000000	119.00000000	132.10000000	112.90000000
24	509.50000000	24.50000000	51.00000000	2.50000000	1.14000000	1.50000000	1.00000000	69.66000000	4.41421353	7.93271979	1.40000000	0.90000000	1.50000000	1.20477927	140.80000000	109.00000000	150.80000000	173.40000000	140.90000000

#4
liczenie
obiektów (w)	udział punktów	pole obrazu(mm²)
	16	100.00	12288.0000
nr.	x(pix.):	y(pix.):	x(mm):	y(mm):	powierzchnia:(mm²)	długość:(mm)	szerokość:(mm)	kąt:(°)	obwód:(mm)	obwód C.:(mm)	średnica Fereta H(mm)	średnica Fereta V(mm)	średn. Martina:(mm)	średn. sitowa:(mm)	średnia jaskrawość	R	G	B	Y
1	788.50000000	812.50000000	78.90000000	81.20000000	10.23000000	0.00000000	0.00000000	0.00000000	12.40000000	12.40000000	3.20000000	3.00000000	0.00000000	3.60904981	66.10000000	51.80000000	71.70000000	75.60000000	66.20000000
2	235.50000000	767.50000000	23.60000000	76.80000000	7.29000000	0.00000000	0.00000000	0.00000000	10.40000000	10.40000000	2.60000000	2.60000000	0.00000000	3.04662375	58.40000000	47.40000000	63.10000000	63.70000000	58.50000000
3	754.50000000	727.50000000	75.50000000	72.80000000	7.83000000	0.00000000	0.00000000	0.00000000	10.80000000	10.80000000	2.80000000	2.60000000	0.00000000	3.15744606	61.80000000	49.20000000	67.00000000	68.10000000	61.80000000
4	519.50000000	502.50000000	52.00000000	50.20000000	10.89000000	0.00000000	0.00000000	0.00000000	12.80000000	12.80000000	3.20000000	3.20000000	0.00000000	3.72365125	70.10000000	56.90000000	75.30000000	78.40000000	70.10000000
5	1213.50000000	411.50000000	121.40000000	41.20000000	8.36000000	12.66153717	3.00000000	179.99000000	11.28284271	54.00713601	3.00000000	2.60000000	12.70000000	3.26255768	52.40000000	40.10000000	57.00000000	61.70000000	52.50000000
6	574.50000000	409.50000000	57.50000000	41.00000000	5.29000000	0.00000000	0.00000000	0.00000000	8.80000000	8.80000000	2.20000000	2.20000000	0.00000000	2.59527208	57.30000000	48.60000000	61.60000000	58.20000000	57.30000000
7	658.50000000	398.50000000	65.90000000	39.90000000	15.75000000	0.00000000	0.00000000	0.00000000	15.60000000	15.60000000	4.40000000	3.40000000	0.00000000	4.47811599	72.50000000	57.70000000	78.10000000	82.80000000	72.50000000
8	1083.50000000	323.50000000	108.40000000	32.40000000	13.65000000	0.00000000	0.00000000	0.00000000	14.40000000	14.40000000	3.80000000	3.40000000	0.00000000	4.16889911	64.70000000	49.70000000	70.10000000	76.40000000	64.70000000
9	1255.50000000	217.50000000	125.60000000	21.80000000	5.51000000	2.82858086	3.20000000	152.68000000	10.68700572	18.95732189	2.40000000	2.20000000	2.80000000	2.64868833	45.50000000	35.80000000	49.20000000	52.00000000	45.50000000
10	643.50000000	206.50000000	64.40000000	20.70000000	10.23000000	0.00000000	0.00000000	0.00000000	12.40000000	12.40000000	3.20000000	3.00000000	0.00000000	3.60904981	67.30000000	53.90000000	72.40000000	76.40000000	67.30000000
11	1182.50000000	180.50000000	118.20000000	18.10000000	11.17000000	4.50184593	2.80000000	89.27000000	13.80416301	23.25202633	3.80000000	2.80000000	4.50000000	3.77121807	49.80000000	38.80000000	54.00000000	58.00000000	49.90000000
12	938.50000000	174.50000000	93.90000000	17.40000000	11.55000000	0.00000000	0.00000000	0.00000000	13.20000000	13.20000000	3.40000000	3.20000000	0.00000000	3.83482943	58.70000000	46.50000000	63.50000000	66.90000000	58.80000000
13	577.50000000	167.50000000	57.80000000	16.80000000	5.29000000	0.00000000	0.00000000	0.00000000	8.80000000	8.80000000	2.20000000	2.20000000	0.00000000	2.59527208	54.40000000	45.50000000	58.50000000	57.00000000	54.50000000
14	922.50000000	146.50000000	92.20000000	14.70000000	12.21000000	0.00000000	0.00000000	0.00000000	13.60000000	13.60000000	3.60000000	3.20000000	0.00000000	3.94287393	63.70000000	49.30000000	68.90000000	74.80000000	63.80000000
15	1040.50000000	121.50000000	104.10000000	12.20000000	19.61000000	0.00000000	0.00000000	0.00000000	17.60000000	17.60000000	5.20000000	3.60000000	0.00000000	4.99682174	63.20000000	48.10000000	68.40000000	75.70000000	63.20000000
16	917.50000000	73.50000000	91.80000000	7.40000000	5.75000000	0.00000000	0.00000000	0.00000000	9.20000000	9.20000000	2.40000000	2.20000000	0.00000000	2.70575819	47.50000000	38.30000000	51.50000000	51.60000000	47.50000000

#5
liczenie
obiektów (w)	udział punktów	pole obrazu(mm²)
	21	100.00	12288.0000
nr.	x(pix.):	y(pix.):	x(mm):	y(mm):	powierzchnia:(mm²)	długość:(mm)	szerokość:(mm)	kąt:(°)	obwód:(mm)	obwód C.:(mm)	średnica Fereta H(mm)	średnica Fereta V(mm)	średn. Martina:(mm)	średn. sitowa:(mm)	średnia jaskrawość	R	G	B	Y
1	950.50000000	937.50000000	95.10000000	93.80000000	10.85000000	0.00000000	0.00000000	0.00000000	12.80000000	12.80000000	3.40000000	3.00000000	0.00000000	3.71680630	62.20000000	50.30000000	67.00000000	69.20000000	62.30000000
2	1116.50000000	910.50000000	111.70000000	91.10000000	8.88000000	4.67888947	3.60000000	97.80000000	11.96568542	26.11944213	3.20000000	2.60000000	4.70000000	3.36249419	59.70000000	47.90000000	64.30000000	67.40000000	59.80000000
3	760.50000000	845.50000000	76.00000000	84.60000000	7.25000000	0.00000000	0.00000000	0.00000000	10.40000000	10.40000000	2.80000000	2.40000000	0.00000000	3.03825389	64.90000000	54.80000000	69.50000000	68.30000000	65.00000000
4	445.50000000	830.50000000	44.60000000	83.10000000	6.25000000	0.00000000	0.00000000	0.00000000	9.60000000	9.60000000	2.40000000	2.40000000	0.00000000	2.82094792	64.50000000	54.90000000	68.80000000	67.30000000	64.50000000
5	1068.50000000	789.50000000	106.90000000	79.00000000	10.15000000	0.00000000	0.00000000	0.00000000	12.40000000	12.40000000	3.40000000	2.80000000	0.00000000	3.59491048	65.60000000	52.50000000	70.80000000	73.20000000	65.60000000
6	10.50000000	789.50000000	1.10000000	79.00000000	6.09000000	0.00000000	0.00000000	0.00000000	9.60000000	9.60000000	2.80000000	2.00000000	0.00000000	2.78460569	71.90000000	60.40000000	76.70000000	77.80000000	72.00000000
7	898.50000000	753.50000000	89.90000000	75.40000000	10.23000000	0.00000000	0.00000000	0.00000000	12.40000000	12.40000000	3.20000000	3.00000000	0.00000000	3.60904981	68.90000000	56.00000000	74.20000000	75.90000000	69.00000000
8	223.50000000	698.50000000	22.40000000	69.90000000	10.15000000	0.00000000	0.00000000	0.00000000	12.40000000	12.40000000	3.40000000	2.80000000	0.00000000	3.59491048	70.70000000	59.50000000	75.50000000	75.80000000	70.70000000
9	880.50000000	665.50000000	88.10000000	66.50000000	10.23000000	0.00000000	0.00000000	0.00000000	12.40000000	12.40000000	3.20000000	3.00000000	0.00000000	3.60904981	75.30000000	61.90000000	80.70000000	82.60000000	75.30000000
10	869.50000000	651.50000000	87.00000000	65.20000000	5.29000000	0.00000000	0.00000000	0.00000000	8.80000000	8.80000000	2.20000000	2.20000000	0.00000000	2.59527208	66.50000000	55.80000000	71.40000000	69.80000000	66.60000000
11	620.50000000	620.50000000	62.10000000	62.10000000	12.21000000	0.00000000	0.00000000	0.00000000	13.60000000	13.60000000	3.60000000	3.20000000	0.00000000	3.94287393	81.90000000	67.30000000	87.80000000	89.80000000	81.90000000
12	324.50000000	571.50000000	32.50000000	57.20000000	8.99000000	0.00000000	0.00000000	0.00000000	11.60000000	11.60000000	3.00000000	2.80000000	0.00000000	3.38325635	74.20000000	61.90000000	79.40000000	80.10000000	74.20000000
13	1233.50000000	563.50000000	123.40000000	56.40000000	11.27000000	5.69000740	3.00000000	2.95000000	13.53137083	27.95847604	3.80000000	2.80000000	5.70000000	3.78806147	66.70000000	52.80000000	71.90000000	76.70000000	66.70000000
14	320.50000000	560.50000000	32.10000000	56.10000000	6.25000000	0.00000000	0.00000000	0.00000000	9.60000000	9.60000000	2.40000000	2.40000000	0.00000000	2.82094792	78.00000000	64.60000000	83.50000000	85.10000000	78.10000000
15	833.50000000	551.50000000	83.40000000	55.20000000	5.29000000	0.00000000	0.00000000	0.00000000	8.80000000	8.80000000	2.20000000	2.20000000	0.00000000	2.59527208	62.30000000	53.20000000	66.80000000	63.60000000	62.40000000
16	78.50000000	542.50000000	7.90000000	54.20000000	24.15000000	0.00000000	0.00000000	0.00000000	20.40000000	20.40000000	6.80000000	3.40000000	0.00000000	5.54515419	72.50000000	61.60000000	77.10000000	77.20000000	72.50000000
17	30.50000000	541.50000000	3.10000000	54.20000000	11.55000000	0.00000000	0.00000000	0.00000000	13.20000000	13.20000000	3.40000000	3.20000000	0.00000000	3.83482943	80.40000000	68.80000000	85.50000000	85.00000000	80.40000000
18	307.50000000	290.50000000	30.80000000	29.10000000	10.15000000	0.00000000	0.00000000	0.00000000	12.40000000	12.40000000	3.40000000	2.80000000	0.00000000	3.59491048	78.70000000	67.10000000	84.00000000	81.90000000	78.70000000
19	511.50000000	235.50000000	51.20000000	23.60000000	8.99000000	0.00000000	0.00000000	0.00000000	11.60000000	11.60000000	3.00000000	2.80000000	0.00000000	3.38325635	73.30000000	62.50000000	78.30000000	76.20000000	73.30000000
20	130.50000000	24.50000000	13.10000000	2.50000000	9.57000000	0.00000000	0.00000000	0.00000000	12.00000000	12.00000000	3.20000000	2.80000000	0.00000000	3.49068796	69.00000000	59.10000000	73.40000000	72.60000000	69.00000000
21	1242.50000000	12.00000000	124.20000000	1.20000000	4.04000000	2.90000000	2.60000000	38.95000000	12.55391039	17.29161396	2.40000000	2.30000000	2.90000000	2.26801406	66.20000000	50.90000000	71.40000000	80.20000000	66.30000000

#6
liczenie
obiektów (w)	udział punktów	pole obrazu(mm²)
	10	100.00	12288.0000
nr.	x(pix.):	y(pix.):	x(mm):	y(mm):	powierzchnia:(mm²)	długość:(mm)	szerokość:(mm)	kąt:(°)	obwód:(mm)	obwód C.:(mm)	średnica Fereta H(mm)	średnica Fereta V(mm)	średn. Martina:(mm)	średn. sitowa:(mm)	średnia jaskrawość	R	G	B	Y
1	823.50000000	859.50000000	82.40000000	86.00000000	5.75000000	0	0	0	9.20000000	9.20000000	2.40000000	2.20000000	0	2.70575819	51.10000000	40.70000000	55.40000000	57.10000000	51.20000000
2	797.50000000	830.50000000	79.80000000	83.10000000	11.55000000	0	0	0	13.20000000	13.20000000	3.40000000	3.20000000	0	3.83482943	60.40000000	46.00000000	65.70000000	71.00000000	60.40000000
3	317.50000000	679.50000000	31.80000000	68.00000000	11.55000000	0	0	0	13.20000000	13.20000000	3.40000000	3.20000000	0	3.83482943	63.90000000	48.60000000	69.50000000	75.30000000	63.90000000
4	208.50000000	674.50000000	20.90000000	67.50000000	12.87000000	0	0	0	14.00000000	14.00000000	3.80000000	3.20000000	0	4.04803569	66.60000000	50.60000000	72.40000000	78.80000000	66.60000000
5	211.50000000	580.50000000	21.20000000	58.10000000	10.23000000	0	0	0	12.40000000	12.40000000	3.20000000	3.00000000	0	3.60904981	64.10000000	49.10000000	69.70000000	74.50000000	64.10000000
6	527.50000000	529.50000000	52.80000000	53.00000000	16.81000000	0	0	0	16.00000000	16.00000000	4.00000000	4.00000000	0	4.62635459	74.70000000	56.20000000	81.30000000	89.40000000	74.70000000
7	863.50000000	406.50000000	86.40000000	40.70000000	23.97000000	0	0	0	19.20000000	19.20000000	5.00000000	4.60000000	0	5.52445037	71.70000000	54.30000000	77.90000000	85.50000000	71.70000000
8	637.50000000	322.50000000	63.80000000	32.20000000	10.23000000	0	0	0	12.40000000	12.40000000	3.20000000	3.00000000	0	3.60904981	65.40000000	50.20000000	71.20000000	75.70000000	65.40000000
9	1102.50000000	279.50000000	110.20000000	28.00000000	5.29000000	0	0	0	8.80000000	8.80000000	2.20000000	2.20000000	0	2.59527208	42.40000000	33.60000000	46.00000000	47.50000000	42.50000000
10	226.50000000	161.50000000	22.70000000	16.20000000	13.65000000	0	0	0	14.40000000	14.40000000	3.80000000	3.40000000	0	4.16889911	65.80000000	49.50000000	71.60000000	78.80000000	65.80000000

#7
liczenie
obiektów (w)	udział punktów	pole obrazu(mm²)
	18	100.00	12288.0000
nr.	x(pix.):	y(pix.):	x(mm):	y(mm):	powierzchnia:(mm²)	długość:(mm)	szerokość:(mm)	kąt:(°)	obwód:(mm)	obwód C.:(mm)	średnica Fereta H(mm)	średnica Fereta V(mm)	średn. Martina:(mm)	średn. sitowa:(mm)	średnia jaskrawość	R	G	B	Y
1	1246.50000000	900.50000000	124.70000000	90.10000000	5.59000000	2.94354362	2.50000000	87.68000000	14.04680361	17.12979293	2.40000000	2.40000000	2.90000000	2.66784727	47.90000000	37.50000000	52.20000000	54.30000000	48.00000000
2	912.50000000	888.50000000	91.20000000	88.90000000	10.23000000	0.00000000	0.00000000	0.00000000	12.40000000	12.40000000	3.20000000	3.00000000	0.00000000	3.60904981	65.50000000	52.00000000	70.60000000	74.80000000	65.50000000
3	683.50000000	825.50000000	68.40000000	82.60000000	12.21000000	0.00000000	0.00000000	0.00000000	13.60000000	13.60000000	3.60000000	3.20000000	0.00000000	3.94287393	73.90000000	58.30000000	79.80000000	84.30000000	73.90000000
4	1202.50000000	762.50000000	120.20000000	76.20000000	12.89000000	5.89525032	3.70000000	2.57000000	14.78994948	30.54013441	3.60000000	3.40000000	5.90000000	4.05117980	67.00000000	52.10000000	72.10000000	80.50000000	67.10000000
5	1145.50000000	698.50000000	114.60000000	69.90000000	8.99000000	0.00000000	0.00000000	0.00000000	11.60000000	11.60000000	3.00000000	2.80000000	0.00000000	3.38325635	59.00000000	45.80000000	64.20000000	67.50000000	59.10000000
6	1067.50000000	664.50000000	106.80000000	66.50000000	22.95000000	0.00000000	0.00000000	0.00000000	18.80000000	18.80000000	5.00000000	4.40000000	0.00000000	5.40563110	68.90000000	52.80000000	74.70000000	81.30000000	68.90000000
7	998.50000000	670.50000000	99.90000000	67.00000000	10.85000000	0.00000000	0.00000000	0.00000000	12.80000000	12.80000000	3.40000000	3.00000000	0.00000000	3.71680630	65.40000000	51.00000000	70.70000000	75.60000000	65.40000000
8	52.50000000	604.50000000	5.20000000	60.50000000	5.75000000	0.00000000	0.00000000	0.00000000	9.20000000	9.20000000	2.40000000	2.20000000	0.00000000	2.70575819	61.20000000	51.40000000	65.60000000	64.60000000	61.30000000
9	587.50000000	559.50000000	58.80000000	56.00000000	15.17000000	0.00000000	0.00000000	0.00000000	15.20000000	15.20000000	4.00000000	3.60000000	0.00000000	4.39488838	72.90000000	58.20000000	78.70000000	81.70000000	72.90000000
10	911.50000000	564.50000000	91.20000000	56.50000000	8.41000000	0.00000000	0.00000000	0.00000000	11.20000000	11.20000000	2.80000000	2.80000000	0.00000000	3.27229958	63.70000000	49.60000000	69.10000000	72.50000000	63.70000000
11	944.50000000	534.50000000	94.50000000	53.50000000	14.43000000	0.00000000	0.00000000	0.00000000	14.80000000	14.80000000	3.80000000	3.60000000	0.00000000	4.28635587	72.90000000	56.50000000	78.70000000	85.20000000	72.80000000
12	143.50000000	519.50000000	14.40000000	52.00000000	12.09000000	0.00000000	0.00000000	0.00000000	13.60000000	13.60000000	3.80000000	3.00000000	0.00000000	3.92345079	72.00000000	57.60000000	77.70000000	80.50000000	72.00000000
13	655.50000000	520.50000000	65.50000000	52.10000000	5.29000000	0.00000000	0.00000000	0.00000000	8.80000000	8.80000000	2.20000000	2.20000000	0.00000000	2.59527208	61.40000000	50.70000000	66.30000000	64.90000000	61.50000000
14	107.50000000	467.50000000	10.80000000	46.80000000	11.47000000	0.00000000	0.00000000	0.00000000	13.20000000	13.20000000	3.60000000	3.00000000	0.00000000	3.82152556	72.80000000	58.10000000	78.60000000	82.10000000	72.80000000
15	20.50000000	398.50000000	2.10000000	39.90000000	11.55000000	0.00000000	0.00000000	0.00000000	13.20000000	13.20000000	3.40000000	3.20000000	0.00000000	3.83482943	75.40000000	62.50000000	80.50000000	83.60000000	75.50000000
16	634.50000000	394.50000000	63.50000000	39.50000000	12.09000000	0.00000000	0.00000000	0.00000000	13.60000000	13.60000000	3.80000000	3.00000000	0.00000000	3.92345079	68.00000000	54.90000000	73.30000000	75.20000000	68.00000000
17	887.50000000	115.50000000	88.80000000	11.60000000	10.89000000	0.00000000	0.00000000	0.00000000	12.80000000	12.80000000	3.20000000	3.20000000	0.00000000	3.72365125	64.10000000	50.20000000	69.30000000	74.20000000	64.10000000
18	135.50000000	16.50000000	13.60000000	1.70000000	9.57000000	0.00000000	0.00000000	0.00000000	12.00000000	12.00000000	3.20000000	2.80000000	0.00000000	3.49068796	65.10000000	52.10000000	70.30000000	72.90000000	65.20000000

#8
liczenie
obiektów (w)	udział punktów	pole obrazu(mm²)
	18	100.00	12288.0000
nr.	x(pix.):	y(pix.):	x(mm):	y(mm):	powierzchnia:(mm²)	długość:(mm)	szerokość:(mm)	kąt:(°)	obwód:(mm)	obwód C.:(mm)	średnica Fereta H(mm)	średnica Fereta V(mm)	średn. Martina:(mm)	średn. sitowa:(mm)	średnia jaskrawość	R	G	B	Y
1	115.50000000	865.50000000	11.60000000	86.60000000	4.50000000	3.27697678	1.90000000	167.48000000	12.83259008	16.55289890	3.20000000	1.80000000	3.30000000	2.39365368	113.80000000	77.00000000	124.00000000	158.10000000	113.90000000
2	364.50000000	806.50000000	36.50000000	80.70000000	3.52000000	2.80000000	1.80000000	167.06000000	9.30121925	14.62257532	2.70000000	1.70000000	2.80000000	2.11702697	118.50000000	79.60000000	130.30000000	159.90000000	118.50000000
3	544.50000000	750.50000000	54.50000000	75.00000000	2.41000000	2.29546223	1.30000000	133.87000000	9.06690466	11.51299879	2.20000000	1.30000000	2.30000000	1.75171553	120.80000000	83.00000000	132.70000000	158.80000000	120.80000000
4	837.50000000	672.50000000	83.80000000	67.20000000	4.75000000	4.70000000	1.70000000	5.84000000	15.93969686	21.22673983	4.70000000	1.60000000	4.70000000	2.45924538	120.50000000	82.10000000	131.50000000	165.30000000	120.60000000
5	740.50000000	616.50000000	74.00000000	61.70000000	1.53000000	1.50000000	1.30000000	28.36000000	5.74558437	8.80768299	1.50000000	1.30000000	1.50000000	1.39572795	122.00000000	83.90000000	134.90000000	155.40000000	122.00000000
6	1143.50000000	534.50000000	114.40000000	53.50000000	0.98000000	1.59587851	0.80000000	22.71000000	5.06274166	7.73599133	1.50000000	0.80000000	1.60000000	1.11703839	100.10000000	67.00000000	107.40000000	149.90000000	100.20000000
7	426.50000000	495.50000000	42.70000000	49.60000000	0.63000000	0.96547117	0.70000000	176.38000000	3.47279218	5.26551949	0.90000000	0.70000000	1.00000000	0.89562320	106.10000000	72.30000000	115.20000000	148.30000000	106.10000000
8	559.50000000	480.50000000	56.00000000	48.10000000	0.51000000	0.91765156	0.70000000	71.24000000	3.01421354	5.10502843	0.90000000	0.70000000	0.90000000	0.80582391	97.80000000	68.90000000	104.90000000	137.10000000	97.80000000
9	494.50000000	410.50000000	49.50000000	41.10000000	1.10000000	1.40000000	1.00000000	15.76000000	5.26274166	7.59227379	1.30000000	1.10000000	1.40000000	1.18345405	102.50000000	68.90000000	111.20000000	145.60000000	102.50000000
10	293.50000000	335.50000000	29.40000000	33.60000000	1.44000000	1.95501747	1.00000000	78.60000000	5.88700572	9.52749782	1.90000000	1.00000000	2.00000000	1.35405500	101.00000000	68.00000000	109.50000000	144.10000000	101.00000000
11	860.50000000	317.50000000	86.10000000	31.80000000	0.99000000	1.50000000	1.10000000	59.12000000	4.75563488	8.21654502	1.30000000	1.00000000	1.50000000	1.12272310	102.80000000	68.20000000	111.30000000	150.20000000	102.80000000
12	587.50000000	188.50000000	58.80000000	18.90000000	10.23000000	9.23825760	1.60000000	101.83000000	31.99238800	38.42895296	9.10000000	1.60000000	9.20000000	3.60904981	109.90000000	73.00000000	120.00000000	154.60000000	109.90000000
13	719.50000000	179.50000000	72.00000000	17.90000000	0.86000000	1.20797272	0.70000000	89.97000000	3.30710677	6.10077030	1.10000000	0.70000000	1.20000000	1.04641579	113.70000000	75.00000000	123.50000000	164.40000000	113.70000000
14	300.50000000	148.50000000	30.10000000	14.90000000	2.38000000	2.62311230	1.30000000	155.08000000	9.46690468	12.67785785	2.60000000	1.30000000	2.60000000	1.74077859	107.30000000	72.60000000	116.60000000	150.00000000	107.30000000
15	1081.50000000	132.50000000	108.20000000	13.20000000	0.32000000	0.80000000	0.60000000	45.00000000	1.94142135	4.42069843	0.50000000	0.50000000	0.80000000	0.63830765	98.00000000	70.80000000	104.60000000	135.70000000	98.00000000
16	583.50000000	99.50000000	58.40000000	10.00000000	0.24000000	0.53443799	0.50000000	33.77000000	1.95563489	3.25068331	0.60000000	0.40000000	0.50000000	0.55279064	77.10000000	56.80000000	82.30000000	104.00000000	77.20000000
17	454.50000000	48.50000000	45.50000000	4.90000000	3.07000000	3.16203651	1.30000000	83.65000000	9.56984843	14.63513979	3.20000000	1.20000000	3.20000000	1.97708002	111.50000000	74.40000000	121.20000000	159.10000000	111.50000000
18	730.50000000	16.00000000	73.00000000	1.60000000	1.27000000	1.70000000	0.90000000	7.25000000	5.14558436	8.36264176	1.70000000	0.90000000	1.70000000	1.27161874	114.20000000	76.80000000	123.80000000	163.10000000	114.20000000

#9
liczenie
obiektów (w)	udział punktów	pole obrazu(mm²)
	13	100.00	12288.0000
nr.	x(pix.):	y(pix.):	x(mm):	y(mm):	powierzchnia:(mm²)	długość:(mm)	szerokość:(mm)	kąt:(°)	obwód:(mm)	obwód C.:(mm)	średnica Fereta H(mm)	średnica Fereta V(mm)	średn. Martina:(mm)	średn. sitowa:(mm)	średnia jaskrawość	R	G	B	Y
1	163.50000000	933.00000000	16.40000000	93.30000000	11.31000000	4.10000000	3.70000000	21.11000000	14.33969687	24.52053608	3.90000000	3.50000000	4.10000000	3.79477789	188.50000000	157.40000000	200.30000000	208.90000000	188.50000000
2	328.50000000	919.50000000	32.90000000	92.00000000	0.34000000	0.83647985	0.50000000	15.73000000	2.18994948	4.26547746	0.70000000	0.50000000	0.80000000	0.65795246	148.70000000	110.20000000	159.50000000	194.90000000	148.80000000
3	1165.50000000	764.50000000	116.60000000	76.50000000	0.67000000	1.60000000	0.70000000	14.41000000	5.34558437	7.50501473	1.60000000	0.70000000	1.60000000	0.92361815	124.40000000	90.40000000	133.60000000	166.20000000	124.40000000
4	293.50000000	668.50000000	29.40000000	66.90000000	0.59000000	1.07547674	0.70000000	62.26000000	3.53137083	5.64036600	1.00000000	0.70000000	1.10000000	0.86672448	158.50000000	115.10000000	173.10000000	197.90000000	158.60000000
5	112.50000000	604.50000000	11.20000000	60.50000000	0.69000000	1.12182446	0.80000000	23.35000000	3.04852812	6.07999098	0.90000000	0.70000000	1.10000000	0.93730213	157.50000000	113.90000000	173.50000000	189.60000000	157.50000000
6	455.50000000	585.50000000	45.60000000	58.60000000	2.20000000	3.10000000	0.90000000	177.00000000	8.86274166	13.53621645	3.10000000	0.90000000	3.10000000	1.67365677	163.00000000	116.70000000	178.30000000	205.70000000	163.00000000
7	798.50000000	500.50000000	79.90000000	50.10000000	1.02000000	1.70000000	0.90000000	111.15000000	5.95563489	8.36264176	1.70000000	0.80000000	1.70000000	1.13960710	162.30000000	118.10000000	176.60000000	204.70000000	162.30000000
8	986.50000000	407.50000000	98.70000000	40.80000000	0.70000000	1.10000000	0.80000000	95.31000000	4.07279218	6.00628745	1.10000000	0.70000000	1.10000000	0.94406974	162.60000000	121.80000000	177.30000000	194.30000000	162.60000000
9	105.50000000	364.50000000	10.60000000	36.50000000	0.63000000	1.00000000	0.80000000	27.46000000	3.18994948	5.67233358	0.90000000	0.70000000	1.00000000	0.89562320	144.70000000	103.90000000	158.20000000	182.60000000	144.80000000
10	448.50000000	256.50000000	44.90000000	25.70000000	1.78000000	2.50000000	1.00000000	110.85000000	9.56984843	11.50655623	2.50000000	1.00000000	2.50000000	1.50544558	157.80000000	114.90000000	171.40000000	199.70000000	157.80000000
11	1006.50000000	237.50000000	100.70000000	23.80000000	0.55000000	1.20000000	0.60000000	33.05000000	3.92132031	5.81306893	1.20000000	0.60000000	1.20000000	0.83682839	163.30000000	121.30000000	178.20000000	196.80000000	163.30000000
12	978.50000000	188.50000000	97.90000000	18.90000000	0.99000000	2.00000000	0.80000000	45.08000000	5.92132031	9.20524498	2.00000000	0.80000000	2.00000000	1.12272310	136.60000000	98.60000000	147.70000000	179.10000000	136.60000000
13	788.50000000	125.50000000	78.90000000	12.60000000	1.21000000	2.56090126	0.60000000	84.39000000	5.44852812	10.91127606	2.40000000	0.50000000	2.60000000	1.24121708	136.50000000	98.30000000	147.60000000	179.50000000	136.50000000

#10
liczenie
obiektów (w)	udział punktów	pole obrazu(mm²)
	15	100.00	12288.0000
nr.	x(pix.):	y(pix.):	x(mm):	y(mm):	powierzchnia:(mm²)	długość:(mm)	szerokość:(mm)	kąt:(°)	obwód:(mm)	obwód C.:(mm)	średnica Fereta H(mm)	średnica Fereta V(mm)	średn. Martina:(mm)	średn. sitowa:(mm)	średnia jaskrawość	R	G	B	Y
1	528.50000000	914.50000000	52.90000000	91.50000000	10.15000000	0	0	0	12.40000000	12.40000000	3.40000000	2.80000000	0	3.59491048	59.90000000	47.00000000	64.70000000	69.30000000	60.00000000
2	1095.50000000	910.50000000	109.60000000	91.10000000	9.99000000	0	0	0	12.40000000	12.40000000	3.60000000	2.60000000	0	3.56646366	46.90000000	36.00000000	50.80000000	56.40000000	47.00000000
3	1252.50000000	851.50000000	125.20000000	85.20000000	8.91000000	0	0	0	11.60000000	11.60000000	3.20000000	2.60000000	0	3.36816929	40.70000000	30.80000000	44.20000000	49.10000000	40.80000000
4	1149.50000000	811.50000000	115.00000000	81.20000000	8.37000000	0	0	0	11.20000000	11.20000000	3.00000000	2.60000000	0	3.26450838	46.00000000	35.30000000	50.00000000	54.20000000	46.10000000
5	1176.50000000	781.50000000	117.70000000	78.20000000	12.25000000	0	0	0	13.60000000	13.60000000	3.40000000	3.40000000	0	3.94932708	50.60000000	38.20000000	55.00000000	61.00000000	50.70000000
6	355.50000000	771.50000000	35.60000000	77.20000000	11.55000000	0	0	0	13.20000000	13.20000000	3.40000000	3.20000000	0	3.83482943	60.80000000	47.00000000	66.10000000	70.50000000	60.90000000
7	640.50000000	726.50000000	64.00000000	72.70000000	12.71000000	0	0	0	14.00000000	14.00000000	4.00000000	3.00000000	0	4.02279438	63.10000000	48.90000000	68.30000000	73.50000000	63.10000000
8	646.50000000	571.50000000	64.70000000	57.20000000	10.53000000	0	0	0	12.80000000	12.80000000	3.80000000	2.60000000	0	3.66158605	61.00000000	47.10000000	66.00000000	71.70000000	61.00000000
9	823.50000000	542.50000000	82.40000000	54.20000000	9.57000000	0	0	0	12.00000000	12.00000000	3.20000000	2.80000000	0	3.49068796	53.70000000	41.80000000	58.10000000	62.50000000	53.70000000
10	974.50000000	432.50000000	97.50000000	43.20000000	12.25000000	0	0	0	13.60000000	13.60000000	3.40000000	3.40000000	0	3.94932708	52.70000000	40.30000000	57.20000000	62.60000000	52.80000000
11	303.50000000	334.50000000	30.40000000	33.50000000	13.53000000	0	0	0	14.40000000	14.40000000	4.00000000	3.20000000	0	4.15053383	69.80000000	53.80000000	75.40000000	83.10000000	69.80000000
12	188.50000000	327.50000000	18.90000000	32.80000000	7.29000000	0	0	0	10.40000000	10.40000000	2.60000000	2.60000000	0	3.04662375	49.00000000	38.90000000	53.10000000	54.70000000	49.10000000
13	276.50000000	325.50000000	27.70000000	32.60000000	9.57000000	0	0	0	12.00000000	12.00000000	3.20000000	2.80000000	0	3.49068796	58.70000000	44.70000000	64.00000000	68.50000000	58.80000000
14	640.50000000	266.50000000	64.00000000	26.70000000	7.29000000	0	0	0	10.40000000	10.40000000	2.60000000	2.60000000	0	3.04662375	50.60000000	40.30000000	55.00000000	56.10000000	50.70000000
15	779.50000000	123.50000000	78.00000000	12.40000000	8.99000000	0	0	0	11.60000000	11.60000000	3.00000000	2.80000000	0	3.38325635	54.80000000	42.30000000	59.20000000	65.20000000	54.90000000
