
#1
liczenie
obiektów (w)	udział punktów	pole obrazu(mm²)
	59	100.00	12288.0000
nr.	x(pix.):	y(pix.):	x(mm):	y(mm):	powierzchnia:(mm²)	długość:(mm)	szerokość:(mm)	kąt:(°)	obwód:(mm)	obwód C.:(mm)	średnica Fereta H(mm)	średnica Fereta V(mm)	średn. Martina:(mm)	średn. sitowa:(mm)	średnia jaskrawość	R	G	B	Y
1	418.50000000	527.50000000	41.90000000	52.80000000	0.51000000	0.00000000	0.00000000	0.00000000	2.73137082	2.73137082	0.90000000	0.70000000	0.00000000	0.80582391	142.20000000	108.90000000	154.20000000	168.30000000	142.30000000
2	409.50000000	726.50000000	41.00000000	72.70000000	0.55000000	0.90000000	0.70000000	10.08000000	2.78994946	5.04620245	0.90000000	0.70000000	0.90000000	0.83301594	142.40000000	109.80000000	154.20000000	167.20000000	142.40000000
3	567.50000000	796.00000000	56.80000000	79.60000000	0.63000000	1.00000000	0.90000000	155.11000000	3.23847759	5.97316043	1.00000000	0.90000000	1.00000000	0.89206206	129.90000000	98.30000000	140.90000000	156.40000000	129.90000000
4	396.00000000	229.50000000	39.60000000	23.00000000	0.80000000	1.30000000	0.80000000	61.44000000	3.43847760	6.69118043	1.20000000	0.80000000	1.30000000	1.00609415	168.30000000	133.70000000	181.30000000	192.00000000	168.30000000
5	760.00000000	71.00000000	76.00000000	7.10000000	0.45000000	0.90000000	0.70000000	37.95000000	2.67279218	5.04620245	0.90000000	0.70000000	0.90000000	0.75272279	142.60000000	110.30000000	154.70000000	165.30000000	142.60000000
6	869.50000000	589.00000000	87.00000000	58.90000000	0.87000000	1.30000000	0.70000000	39.69000000	3.66274165	6.42537074	1.30000000	0.80000000	1.30000000	1.05248202	162.20000000	130.70000000	173.10000000	188.20000000	162.20000000
7	1250.00000000	369.00000000	125.00000000	36.90000000	0.57000000	1.20000000	0.70000000	11.81000000	3.17989893	6.07282316	1.20000000	0.70000000	1.20000000	0.85190759	128.80000000	95.90000000	140.50000000	155.80000000	128.90000000
8	65.00000000	56.50000000	6.50000000	5.70000000	0.64000000	1.00000000	0.50000000	65.01000000	3.09705622	4.84422411	0.90000000	0.90000000	1.00000000	0.90270333	160.80000000	129.30000000	172.90000000	181.10000000	160.80000000
9	1124.00000000	297.00000000	112.40000000	29.70000000	0.95000000	1.50000000	0.90000000	30.78000000	3.94558438	7.65809966	1.40000000	0.80000000	1.50000000	1.09980797	149.90000000	112.90000000	162.90000000	180.20000000	149.90000000
10	884.00000000	511.50000000	88.40000000	51.20000000	1.33000000	1.70000000	0.90000000	87.19000000	4.49705621	8.36264176	1.70000000	0.90000000	1.70000000	1.30131034	153.20000000	119.00000000	165.30000000	180.50000000	153.20000000
11	196.00000000	792.50000000	19.60000000	79.20000000	0.49000000	0.90000000	0.20000000	83.69000000	2.61421351	3.81553916	0.80000000	0.70000000	0.90000000	0.78986542	133.00000000	101.60000000	144.40000000	157.00000000	133.00000000
12	188.00000000	87.50000000	18.80000000	8.80000000	0.52000000	0.90000000	0.80000000	122.01000000	2.86274165	5.34532850	0.80000000	0.70000000	0.90000000	0.81368579	131.30000000	100.80000000	142.60000000	153.30000000	131.30000000
13	307.50000000	603.50000000	30.80000000	60.40000000	0.39000000	1.00000000	0.50000000	87.32000000	2.47279217	4.84422411	0.90000000	0.60000000	1.00000000	0.70014086	146.30000000	113.00000000	157.90000000	173.70000000	146.30000000
14	1202.00000000	378.00000000	120.20000000	37.80000000	0.54000000	1.00000000	0.50000000	106.82000000	2.73137082	4.84422411	0.90000000	0.70000000	1.00000000	0.82918596	128.10000000	94.70000000	140.00000000	154.00000000	128.10000000
15	339.00000000	244.50000000	33.90000000	24.50000000	0.66000000	1.10000000	0.50000000	75.30000000	3.07279216	5.20487381	1.10000000	0.70000000	1.10000000	0.91322062	130.80000000	100.00000000	141.50000000	156.50000000	130.80000000
16	795.50000000	479.00000000	79.60000000	47.90000000	0.41000000	0.70000000	0.70000000	176.59000000	2.38994946	4.39822972	0.70000000	0.70000000	0.70000000	0.71809610	124.40000000	94.10000000	135.20000000	148.60000000	124.40000000
17	452.00000000	182.00000000	45.20000000	18.20000000	0.59000000	1.00000000	0.80000000	58.81000000	2.97989893	5.67233358	0.90000000	0.80000000	1.00000000	0.86672448	147.10000000	113.00000000	159.50000000	172.80000000	147.10000000
18	459.50000000	15.50000000	46.00000000	1.60000000	0.60000000	1.10000000	0.30000000	49.33000000	3.03847761	4.76528499	1.10000000	0.70000000	1.10000000	0.87038930	147.40000000	115.60000000	158.80000000	171.60000000	147.30000000
19	238.50000000	735.00000000	23.90000000	73.50000000	0.64000000	1.10000000	0.60000000	36.88000000	3.07279218	5.45684568	0.90000000	0.90000000	1.10000000	0.89917023	164.30000000	128.00000000	178.10000000	188.60000000	164.30000000
20	14.50000000	254.00000000	1.50000000	25.40000000	0.62000000	1.00000000	0.70000000	38.30000000	3.01421353	5.38236898	0.90000000	0.90000000	1.00000000	0.88848664	152.80000000	119.90000000	164.80000000	177.50000000	152.80000000
21	1063.50000000	44.00000000	106.40000000	4.40000000	0.52000000	0.00000000	0.00000000	0.00000000	2.67279216	2.67279216	0.90000000	0.70000000	0.00000000	0.80976439	108.50000000	81.90000000	117.50000000	132.80000000	108.60000000
22	131.50000000	154.00000000	13.20000000	15.40000000	0.78000000	1.10000000	0.60000000	151.28000000	3.43847759	5.45684568	1.10000000	1.00000000	1.10000000	0.99335827	146.40000000	111.80000000	159.00000000	172.70000000	146.40000000
23	166.00000000	405.50000000	16.60000000	40.60000000	0.75000000	1.30000000	0.80000000	65.14000000	3.46274161	6.69118043	1.10000000	0.80000000	1.30000000	0.97720502	152.80000000	119.70000000	165.20000000	175.80000000	152.80000000
24	211.00000000	97.00000000	21.10000000	9.70000000	0.71000000	1.30000000	0.70000000	30.90000000	3.46274164	6.42537074	1.20000000	0.80000000	1.30000000	0.95078919	135.50000000	100.80000000	147.60000000	164.10000000	135.50000000
25	586.50000000	561.00000000	58.70000000	56.10000000	1.00000000	1.40000000	0.40000000	132.79000000	4.06274165	6.10035750	1.40000000	0.90000000	1.40000000	1.12837917	142.30000000	109.90000000	153.40000000	170.10000000	142.30000000
26	995.00000000	162.50000000	99.50000000	16.20000000	1.49000000	2.20000000	0.00000000	58.01000000	5.74558434	8.79645943	2.20000000	1.10000000	2.20000000	1.37736231	137.80000000	100.50000000	149.70000000	174.20000000	137.80000000
27	1088.50000000	14.50000000	108.90000000	1.50000000	0.84000000	1.30000000	0.70000000	114.19000000	3.66274165	6.42537074	1.10000000	1.00000000	1.30000000	1.03417659	123.90000000	93.50000000	133.80000000	153.10000000	123.90000000
28	101.50000000	650.00000000	10.20000000	65.00000000	0.39000000	0.70000000	0.60000000	117.22000000	2.33137082	4.09011421	0.70000000	0.70000000	0.70000000	0.70467256	114.40000000	87.80000000	123.90000000	135.10000000	114.40000000
29	426.50000000	39.50000000	42.70000000	4.00000000	1.32000000	1.90000000	1.00000000	160.28000000	4.72132030	9.33134210	1.80000000	1.00000000	1.90000000	1.29395131	165.90000000	130.00000000	179.20000000	191.30000000	165.90000000
30	38.50000000	331.00000000	3.90000000	33.10000000	0.89000000	1.30000000	0.60000000	93.98000000	3.63847758	6.17335602	1.30000000	0.90000000	1.30000000	1.06151637	150.90000000	119.00000000	162.30000000	176.30000000	150.90000000
31	430.00000000	330.50000000	43.00000000	33.10000000	1.31000000	2.00000000	0.80000000	51.99000000	4.88700571	9.20524498	2.00000000	0.90000000	2.00000000	1.28902196	164.40000000	125.10000000	178.20000000	196.90000000	164.40000000
32	566.50000000	738.00000000	56.70000000	73.80000000	1.09000000	1.70000000	0.60000000	147.98000000	4.54558436	7.64512939	1.70000000	0.90000000	1.70000000	1.17806244	130.10000000	99.40000000	140.40000000	157.90000000	130.20000000
33	280.00000000	334.50000000	28.00000000	33.50000000	1.72000000	2.30000000	0.90000000	94.99000000	6.00416301	10.54020574	2.30000000	1.00000000	2.30000000	1.47770289	166.10000000	130.20000000	179.00000000	193.90000000	166.10000000
34	20.00000000	788.00000000	2.00000000	78.80000000	0.57000000	1.10000000	0.50000000	124.75000000	2.95563487	5.20487381	1.10000000	0.70000000	1.10000000	0.84816292	132.20000000	101.70000000	142.10000000	161.10000000	132.20000000
35	112.50000000	791.50000000	11.20000000	79.20000000	1.76000000	2.10000000	1.00000000	1.75000000	5.74558436	10.04798821	2.10000000	1.10000000	2.10000000	1.49696413	159.60000000	122.30000000	172.50000000	191.60000000	159.60000000
36	580.50000000	11.50000000	58.10000000	1.20000000	0.50000000	0.90000000	0.20000000	110.27000000	2.67279217	3.81553916	0.90000000	0.70000000	0.90000000	0.79388511	140.00000000	109.70000000	150.60000000	164.00000000	139.90000000
37	32.00000000	77.50000000	3.20000000	7.80000000	1.12000000	1.50000000	0.90000000	91.99000000	4.23847758	7.65809966	1.50000000	0.90000000	1.50000000	1.19149574	157.50000000	127.20000000	168.50000000	180.10000000	157.50000000
38	1204.50000000	167.50000000	120.50000000	16.80000000	1.82000000	2.20000000	0.90000000	109.88000000	5.76984843	10.17203439	2.20000000	1.10000000	2.20000000	1.52017426	146.40000000	108.50000000	159.10000000	180.50000000	146.40000000
39	10.00000000	771.50000000	1.00000000	77.20000000	0.75000000	1.20000000	0.80000000	115.55000000	3.35563487	6.34617584	1.10000000	0.90000000	1.20000000	0.97394223	149.40000000	114.30000000	161.40000000	178.70000000	149.30000000
40	867.00000000	64.00000000	86.70000000	6.40000000	0.63000000	1.00000000	0.90000000	158.75000000	3.01421354	5.97316043	0.90000000	0.90000000	1.00000000	0.89562320	139.40000000	105.90000000	151.40000000	165.30000000	139.40000000
41	189.50000000	35.50000000	18.90000000	3.60000000	1.08000000	1.50000000	0.70000000	98.95000000	4.03847758	7.14193743	1.40000000	0.90000000	1.50000000	1.16992842	182.50000000	152.40000000	193.90000000	202.90000000	182.50000000
42	84.00000000	697.50000000	8.40000000	69.80000000	1.45000000	1.90000000	0.90000000	161.89000000	5.22842708	9.07926999	1.90000000	1.10000000	1.90000000	1.35874845	123.00000000	94.40000000	132.40000000	149.50000000	123.00000000
43	11.00000000	68.00000000	1.10000000	6.80000000	1.14000000	1.50000000	1.10000000	19.50000000	4.40416301	8.21654502	1.40000000	1.20000000	1.50000000	1.20213430	133.60000000	102.60000000	143.40000000	164.20000000	133.60000000
44	413.00000000	839.50000000	41.30000000	84.00000000	0.37000000	0.70000000	0.70000000	151.73000000	2.33137082	4.39822972	0.70000000	0.70000000	0.70000000	0.68636625	98.80000000	76.30000000	105.80000000	121.80000000	98.80000000
45	863.50000000	78.00000000	86.40000000	7.80000000	0.28000000	0.70000000	0.60000000	157.46000000	2.07279218	4.09011421	0.60000000	0.60000000	0.70000000	0.59172703	127.20000000	97.20000000	138.00000000	150.20000000	127.20000000
46	577.50000000	704.50000000	57.80000000	70.50000000	0.34000000	0.60000000	0.70000000	129.81000000	2.29705623	4.09011421	0.70000000	0.60000000	0.60000000	0.65795246	101.40000000	80.60000000	109.30000000	114.80000000	101.30000000
47	559.50000000	11.50000000	56.00000000	1.20000000	0.31000000	0.70000000	0.50000000	27.45000000	2.21421353	3.79613689	0.60000000	0.60000000	0.70000000	0.62825493	97.60000000	76.50000000	104.70000000	116.40000000	97.60000000
48	779.00000000	520.00000000	77.90000000	52.00000000	2.68000000	3.90000000	0.90000000	123.40000000	9.25685415	16.59239152	3.90000000	1.00000000	3.90000000	1.84723631	136.20000000	104.40000000	146.50000000	166.70000000	136.20000000
49	82.00000000	827.00000000	8.20000000	82.70000000	1.52000000	2.00000000	1.00000000	52.65000000	5.66274166	9.68844822	2.00000000	1.20000000	2.00000000	1.39115927	139.30000000	105.50000000	150.00000000	173.10000000	139.30000000
50	191.00000000	504.50000000	19.10000000	50.50000000	1.07000000	1.80000000	0.70000000	100.44000000	4.63847760	8.23895513	1.70000000	0.80000000	1.80000000	1.16447418	153.90000000	117.40000000	166.90000000	183.10000000	153.90000000
51	166.00000000	301.00000000	16.60000000	30.10000000	1.50000000	2.00000000	1.10000000	56.06000000	5.73553385	9.94525880	2.00000000	1.10000000	2.00000000	1.37967138	123.70000000	93.60000000	133.10000000	153.80000000	123.70000000
52	1260.00000000	444.50000000	126.00000000	44.50000000	0.68000000	1.20000000	0.50000000	42.66000000	3.23847760	5.56959491	1.20000000	0.70000000	1.20000000	0.92705808	103.20000000	76.90000000	112.10000000	126.40000000	103.20000000
53	452.00000000	353.00000000	45.20000000	35.30000000	1.43000000	2.00000000	1.00000000	153.28000000	5.70121926	9.68844822	1.80000000	1.10000000	2.00000000	1.34698417	131.70000000	98.70000000	142.30000000	163.30000000	131.70000000
54	733.50000000	490.50000000	73.40000000	49.10000000	0.30000000	0.60000000	0.60000000	135.00000000	2.21421351	3.76991118	0.60000000	0.60000000	0.60000000	0.61803872	98.90000000	78.70000000	106.50000000	113.40000000	99.00000000
55	1085.00000000	849.00000000	108.50000000	84.90000000	0.28000000	0.80000000	0.50000000	85.42000000	1.98994946	4.13862761	0.70000000	0.50000000	0.80000000	0.59172703	74.80000000	56.90000000	81.70000000	86.20000000	74.80000000
56	49.50000000	513.00000000	5.00000000	51.30000000	1.97000000	2.80000000	0.90000000	8.99000000	7.58406193	12.40374683	2.80000000	1.30000000	2.80000000	1.58174451	136.70000000	105.60000000	147.10000000	164.40000000	136.70000000
57	526.00000000	713.00000000	52.60000000	71.30000000	0.41000000	0.90000000	0.70000000	115.86000000	2.49705623	5.04620245	0.80000000	0.60000000	0.90000000	0.72251520	86.80000000	69.10000000	92.60000000	104.00000000	86.90000000
58	183.50000000	918.50000000	18.40000000	91.90000000	0.95000000	1.50000000	0.90000000	101.33000000	4.40416301	7.65809966	1.50000000	0.90000000	1.50000000	1.09690992	77.70000000	59.70000000	82.50000000	100.00000000	77.70000000
59	509.50000000	841.50000000	51.00000000	84.20000000	8.01000000	0.00000000	0.00000000	0.00000000	25.02497808	25.02497808	10.30000000	2.80000000	0.00000000	3.19353233	102.40000000	79.20000000	110.20000000	123.30000000	102.40000000

#2
liczenie
obiektów (w)	udział punktów	pole obrazu(mm²)
	189	100.00	12288.0000
nr.	x(pix.):	y(pix.):	x(mm):	y(mm):	powierzchnia:(mm²)	długość:(mm)	szerokość:(mm)	kąt:(°)	obwód:(mm)	obwód C.:(mm)	średnica Fereta H(mm)	średnica Fereta V(mm)	średn. Martina:(mm)	średn. sitowa:(mm)	średnia jaskrawość	R	G	B	Y
1	21.00000000	949.50000000	2.10000000	95.00000000	0.81000000	1.20000000	0.50000000	64.94000000	3.43847759	5.56959491	1.10000000	0.90000000	1.20000000	1.01240201	125.00000000	91.40000000	134.30000000	164.90000000	125.00000000
2	401.00000000	505.00000000	40.10000000	50.50000000	0.42000000	0.80000000	0.60000000	57.68000000	2.47279218	4.42069843	0.80000000	0.70000000	0.80000000	0.72690743	124.20000000	93.00000000	134.50000000	153.20000000	124.20000000
3	210.50000000	73.50000000	21.10000000	7.40000000	0.50000000	1.00000000	0.80000000	74.85000000	2.69705622	5.67233358	0.80000000	0.70000000	1.00000000	0.79788456	141.80000000	102.40000000	155.50000000	174.90000000	141.80000000
4	1104.00000000	311.50000000	110.40000000	31.20000000	0.63000000	0.90000000	0.90000000	0.00000000	2.89705620	5.65486678	0.80000000	0.80000000	0.90000000	0.89562320	102.60000000	72.40000000	111.50000000	135.40000000	102.50000000
5	297.50000000	830.50000000	29.80000000	83.10000000	0.42000000	0.70000000	0.80000000	141.48000000	2.47279218	4.71762642	0.80000000	0.70000000	0.70000000	0.72690743	127.50000000	92.60000000	139.10000000	159.80000000	127.50000000
6	436.00000000	896.00000000	43.60000000	89.60000000	0.58000000	0.90000000	0.60000000	46.14000000	3.03847759	4.75963188	0.90000000	0.80000000	0.90000000	0.85563587	125.50000000	90.80000000	135.60000000	164.10000000	125.50000000
7	293.50000000	519.00000000	29.40000000	51.90000000	0.95000000	1.30000000	1.20000000	3.49000000	3.94558434	7.85712354	1.20000000	1.10000000	1.30000000	1.09980797	147.40000000	108.90000000	160.60000000	180.50000000	147.40000000
8	809.50000000	682.00000000	81.00000000	68.20000000	0.97000000	1.50000000	0.60000000	7.53000000	4.07279218	6.90393374	1.50000000	0.80000000	1.50000000	1.10845666	153.50000000	109.60000000	167.80000000	195.20000000	153.50000000
9	124.00000000	784.50000000	12.40000000	78.50000000	0.91000000	1.20000000	1.00000000	157.92000000	3.74558434	6.92579120	1.10000000	1.10000000	1.20000000	1.07640512	119.50000000	83.20000000	131.20000000	155.00000000	119.50000000
10	834.00000000	497.50000000	83.40000000	49.80000000	0.35000000	0.90000000	0.70000000	164.18000000	2.37989895	5.04620245	0.70000000	0.60000000	0.90000000	0.66755812	130.30000000	93.30000000	142.30000000	165.80000000	130.30000000
11	1090.50000000	825.50000000	109.10000000	82.60000000	0.85000000	1.30000000	0.90000000	21.11000000	3.63847760	6.96874271	1.10000000	1.00000000	1.30000000	1.03724993	109.70000000	76.00000000	119.10000000	149.60000000	109.70000000
12	954.50000000	815.00000000	95.50000000	81.50000000	0.69000000	1.10000000	0.90000000	70.50000000	3.37989895	6.29890311	1.10000000	0.90000000	1.10000000	0.93730213	118.10000000	83.80000000	127.90000000	158.10000000	118.10000000
13	1103.00000000	346.50000000	110.30000000	34.60000000	0.68000000	1.10000000	0.50000000	164.42000000	3.21421354	5.20487381	1.10000000	0.80000000	1.10000000	0.93048530	120.10000000	83.30000000	130.70000000	162.00000000	120.10000000
14	853.00000000	196.00000000	85.30000000	19.60000000	1.35000000	1.90000000	0.80000000	117.73000000	4.82842706	8.83808840	1.70000000	1.10000000	1.90000000	1.31105812	133.50000000	93.90000000	145.90000000	173.40000000	133.50000000
15	368.50000000	458.50000000	36.90000000	45.90000000	0.55000000	0.90000000	0.70000000	93.32000000	2.81421353	5.04620245	0.80000000	0.80000000	0.90000000	0.83682839	135.70000000	98.00000000	148.70000000	168.00000000	135.70000000
16	1067.00000000	618.00000000	106.70000000	61.80000000	0.43000000	0.70000000	0.60000000	11.95000000	2.44852812	4.09011421	0.70000000	0.70000000	0.70000000	0.73992770	134.60000000	96.80000000	147.00000000	170.00000000	134.60000000
17	111.00000000	165.00000000	11.10000000	16.50000000	0.63000000	1.20000000	0.50000000	67.63000000	3.07279217	5.56959491	1.10000000	0.70000000	1.20000000	0.89206206	141.20000000	103.10000000	154.30000000	173.80000000	141.20000000
18	581.50000000	79.50000000	58.20000000	8.00000000	0.81000000	1.50000000	0.70000000	27.42000000	3.69705623	7.14193743	1.30000000	0.90000000	1.50000000	1.01554125	151.80000000	110.90000000	166.10000000	185.60000000	151.80000000
19	119.00000000	309.00000000	11.90000000	30.90000000	0.79000000	1.20000000	1.00000000	22.01000000	3.46274166	6.92579120	1.10000000	0.80000000	1.20000000	1.00292534	130.00000000	91.70000000	142.50000000	166.00000000	130.00000000
20	514.50000000	269.00000000	51.50000000	26.90000000	0.76000000	1.30000000	0.70000000	0.84000000	3.63847760	6.42537074	1.10000000	1.10000000	1.30000000	0.98045696	144.00000000	103.90000000	157.90000000	177.70000000	144.00000000
21	1166.00000000	337.50000000	116.60000000	33.80000000	0.79000000	1.20000000	0.30000000	69.06000000	3.35563489	5.14705178	1.10000000	0.90000000	1.20000000	0.99974649	148.40000000	106.60000000	162.20000000	186.40000000	148.40000000
22	957.50000000	461.00000000	95.80000000	46.10000000	0.69000000	1.20000000	0.70000000	88.03000000	3.35563488	6.07282316	1.20000000	0.70000000	1.20000000	0.93389993	141.90000000	102.00000000	155.00000000	179.40000000	141.90000000
23	644.00000000	710.50000000	64.40000000	71.00000000	0.64000000	0.90000000	0.70000000	116.71000000	2.95563487	5.04620245	0.90000000	0.80000000	0.90000000	0.89917023	149.90000000	107.60000000	165.40000000	181.10000000	149.90000000
24	511.50000000	151.00000000	51.20000000	15.10000000	0.75000000	1.30000000	0.70000000	8.35000000	3.55563488	6.42537074	1.30000000	0.70000000	1.30000000	0.97394223	148.80000000	108.40000000	162.70000000	183.40000000	148.80000000
25	469.50000000	196.00000000	47.00000000	19.60000000	1.01000000	1.30000000	1.00000000	49.96000000	3.94558434	7.25642889	1.30000000	1.00000000	1.30000000	1.13400703	146.50000000	106.20000000	160.10000000	181.60000000	146.40000000
26	694.00000000	566.00000000	69.40000000	56.60000000	0.49000000	0.90000000	0.20000000	83.69000000	2.61421351	3.81553916	0.80000000	0.70000000	0.90000000	0.78986542	148.90000000	108.00000000	163.50000000	180.60000000	148.90000000
27	592.00000000	283.00000000	59.20000000	28.30000000	0.93000000	1.30000000	0.80000000	37.59000000	3.69705623	6.69118043	1.10000000	1.10000000	1.30000000	1.08816946	172.70000000	133.70000000	187.00000000	201.30000000	172.70000000
28	516.50000000	413.00000000	51.70000000	41.30000000	1.08000000	1.50000000	0.90000000	84.19000000	4.23847760	7.65809966	1.50000000	0.90000000	1.50000000	1.16992842	155.90000000	116.20000000	170.20000000	186.20000000	155.90000000
29	188.00000000	302.00000000	18.80000000	30.20000000	1.15000000	1.60000000	0.70000000	144.77000000	4.26274167	7.50501473	1.60000000	1.00000000	1.60000000	1.21005185	148.90000000	106.20000000	163.50000000	185.40000000	148.90000000
30	763.50000000	290.00000000	76.40000000	29.00000000	0.73000000	1.10000000	0.80000000	115.00000000	3.23847756	6.00628745	1.00000000	0.90000000	1.10000000	0.96078024	143.50000000	103.50000000	157.10000000	179.00000000	143.50000000
31	1254.00000000	228.50000000	125.40000000	22.90000000	0.99000000	1.50000000	0.80000000	37.61000000	4.00416300	7.39397902	1.40000000	0.90000000	1.50000000	1.11988435	122.70000000	85.70000000	133.80000000	163.30000000	122.80000000
32	712.50000000	415.50000000	71.20000000	41.60000000	0.36000000	0.70000000	0.60000000	44.00000000	2.27279217	4.09011421	0.70000000	0.60000000	0.70000000	0.67230948	109.40000000	78.50000000	119.20000000	139.80000000	109.40000000
33	1164.50000000	894.50000000	116.50000000	89.50000000	0.81000000	1.20000000	0.80000000	49.12000000	3.52132031	6.34617584	1.20000000	0.90000000	1.20000000	1.01240201	108.70000000	75.30000000	117.60000000	151.00000000	108.70000000
34	1098.00000000	521.00000000	109.80000000	52.10000000	0.76000000	1.40000000	0.90000000	172.86000000	3.80416299	7.31128766	1.10000000	1.00000000	1.40000000	0.98045696	123.00000000	86.10000000	134.20000000	162.50000000	123.00000000
35	382.00000000	383.50000000	38.20000000	38.40000000	0.32000000	0.60000000	0.60000000	135.00000000	2.37989895	3.76991118	0.60000000	0.60000000	0.60000000	0.63830765	128.40000000	96.70000000	138.80000000	158.20000000	128.40000000
36	480.50000000	712.00000000	48.10000000	71.20000000	1.21000000	1.70000000	0.80000000	113.52000000	4.60416299	8.11058223	1.70000000	0.90000000	1.70000000	1.23864993	144.80000000	103.80000000	158.70000000	181.20000000	144.80000000
37	282.00000000	81.50000000	28.20000000	8.20000000	1.00000000	1.30000000	0.90000000	12.30000000	3.87279218	6.96874271	1.30000000	0.90000000	1.30000000	1.12555468	156.70000000	112.00000000	172.80000000	190.90000000	156.70000000
38	192.50000000	700.00000000	19.20000000	70.00000000	0.67000000	1.10000000	0.70000000	85.90000000	3.13137082	5.72489813	1.10000000	0.70000000	1.10000000	0.92361815	154.50000000	112.50000000	169.00000000	189.70000000	154.50000000
39	1031.00000000	717.50000000	103.10000000	71.80000000	1.64000000	2.10000000	0.70000000	11.84000000	5.46274164	9.35542495	2.10000000	1.00000000	2.10000000	1.44503040	135.50000000	93.70000000	148.40000000	178.50000000	135.50000000
40	1015.00000000	607.00000000	101.50000000	60.70000000	0.62000000	1.00000000	0.50000000	45.39000000	2.95563488	4.84422411	1.00000000	0.80000000	1.00000000	0.88489678	132.50000000	94.70000000	144.20000000	171.60000000	132.50000000
41	966.50000000	247.50000000	96.70000000	24.80000000	1.00000000	1.40000000	1.00000000	155.64000000	3.92132028	7.59227379	1.30000000	1.10000000	1.40000000	1.12555468	141.40000000	101.40000000	154.80000000	177.80000000	141.40000000
42	353.00000000	189.50000000	35.30000000	18.90000000	0.39000000	0.90000000	0.70000000	17.31000000	2.49705623	5.04620245	0.80000000	0.60000000	0.90000000	0.70467256	120.40000000	88.90000000	130.60000000	150.40000000	120.40000000
43	332.00000000	418.00000000	33.20000000	41.80000000	0.61000000	1.10000000	0.80000000	36.31000000	2.95563489	6.00628745	1.10000000	0.70000000	1.10000000	0.87767302	139.60000000	100.40000000	153.20000000	172.80000000	139.60000000
44	832.00000000	355.50000000	83.20000000	35.60000000	0.40000000	0.80000000	0.70000000	156.13000000	2.57989897	4.71762642	0.80000000	0.60000000	0.80000000	0.71364965	128.00000000	92.50000000	139.50000000	162.30000000	128.00000000
45	949.00000000	651.00000000	94.90000000	65.10000000	0.80000000	1.40000000	0.90000000	161.46000000	3.94558437	7.31128766	1.40000000	0.90000000	1.40000000	1.00925301	136.00000000	97.60000000	148.20000000	174.20000000	136.00000000
46	1052.50000000	441.50000000	105.20000000	44.20000000	0.59000000	1.20000000	0.50000000	15.78000000	3.09705625	5.56959491	1.10000000	0.80000000	1.20000000	0.86672448	156.70000000	111.90000000	172.20000000	194.70000000	156.80000000
47	983.00000000	203.50000000	98.30000000	20.40000000	0.57000000	1.00000000	0.90000000	78.75000000	3.20416300	5.97316043	0.90000000	0.80000000	1.00000000	0.84816292	112.20000000	78.60000000	121.80000000	150.90000000	112.20000000
48	576.50000000	371.50000000	57.70000000	37.10000000	0.38000000	0.80000000	0.70000000	52.81000000	2.27279216	4.71762642	0.70000000	0.60000000	0.80000000	0.69098830	124.10000000	91.40000000	134.80000000	154.70000000	124.10000000
49	1091.50000000	155.00000000	109.20000000	15.50000000	0.64000000	1.00000000	0.80000000	48.19000000	2.95563487	5.67233358	1.00000000	0.80000000	1.00000000	0.89917023	121.30000000	85.50000000	132.10000000	159.80000000	121.30000000
50	908.50000000	907.50000000	90.90000000	90.80000000	0.75000000	1.00000000	1.00000000	144.44000000	3.34558439	6.28318531	1.00000000	0.80000000	1.00000000	0.97720502	152.10000000	111.90000000	166.20000000	184.90000000	152.10000000
51	918.50000000	274.50000000	91.90000000	27.50000000	1.11000000	1.60000000	0.90000000	97.17000000	4.12132028	8.00868922	1.50000000	1.00000000	1.60000000	1.18614067	144.20000000	103.30000000	157.80000000	181.40000000	144.20000000
52	97.50000000	213.50000000	9.80000000	21.40000000	0.58000000	0.90000000	0.70000000	38.54000000	2.83847758	5.04620245	0.80000000	0.80000000	0.90000000	0.85563587	106.50000000	76.80000000	115.50000000	137.80000000	106.50000000
53	698.50000000	183.00000000	69.90000000	18.30000000	0.61000000	1.20000000	0.80000000	19.42000000	3.48700572	6.34617584	1.10000000	0.80000000	1.20000000	0.87767302	145.10000000	104.10000000	159.30000000	179.80000000	145.10000000
54	255.00000000	238.50000000	25.50000000	23.90000000	0.54000000	1.10000000	0.50000000	70.56000000	2.81421351	5.20487381	1.00000000	0.70000000	1.10000000	0.82918596	142.00000000	102.70000000	155.60000000	176.30000000	142.10000000
55	1124.00000000	31.00000000	112.40000000	3.10000000	0.91000000	1.30000000	0.90000000	24.31000000	3.63847758	6.96874271	1.20000000	1.00000000	1.30000000	1.07344389	169.00000000	129.90000000	183.60000000	195.70000000	168.90000000
56	1264.00000000	361.00000000	126.40000000	36.10000000	0.86000000	1.30000000	0.90000000	74.38000000	3.77989893	6.96874271	1.30000000	0.90000000	1.30000000	1.04641579	121.10000000	84.40000000	131.60000000	163.40000000	121.10000000
57	1168.00000000	23.50000000	116.80000000	2.40000000	0.46000000	0.90000000	0.60000000	9.69000000	2.92132030	4.75963188	0.80000000	0.80000000	0.90000000	0.76113336	94.20000000	69.00000000	100.90000000	125.60000000	94.20000000
58	60.00000000	528.50000000	6.00000000	52.90000000	1.59000000	2.10000000	0.90000000	27.67000000	5.51126978	9.80569999	2.10000000	1.00000000	2.10000000	1.42283199	145.20000000	106.80000000	157.60000000	182.10000000	145.20000000
59	746.00000000	896.50000000	74.60000000	89.70000000	0.78000000	1.20000000	0.80000000	100.74000000	3.66274165	6.34617584	1.20000000	0.90000000	1.20000000	0.99655750	139.90000000	100.90000000	152.60000000	177.40000000	140.00000000
60	146.50000000	197.00000000	14.70000000	19.70000000	1.22000000	2.00000000	0.70000000	167.15000000	5.19411249	8.98147895	2.00000000	1.00000000	2.00000000	1.24633553	142.80000000	101.70000000	156.30000000	181.10000000	142.80000000
61	1108.50000000	646.50000000	110.90000000	64.70000000	0.77000000	1.20000000	0.90000000	144.30000000	3.43847759	6.63104765	1.10000000	0.90000000	1.20000000	0.98692870	126.80000000	88.40000000	138.40000000	168.10000000	126.80000000
62	566.00000000	239.50000000	56.60000000	24.00000000	1.39000000	1.80000000	0.80000000	44.96000000	5.22842706	8.47311969	1.90000000	1.00000000	1.80000000	1.33033942	142.50000000	102.60000000	155.20000000	181.70000000	142.50000000
63	976.00000000	915.00000000	97.60000000	91.50000000	1.67000000	2.10000000	0.90000000	32.79000000	5.59411247	9.80569999	2.00000000	1.10000000	2.10000000	1.45818724	114.30000000	81.20000000	123.50000000	153.50000000	114.30000000
64	434.50000000	837.00000000	43.50000000	83.70000000	0.53000000	0.90000000	0.90000000	90.00000000	2.89705622	5.65486678	0.80000000	0.80000000	0.90000000	0.82147243	129.70000000	96.90000000	140.50000000	160.50000000	129.70000000
65	949.50000000	229.00000000	95.00000000	22.90000000	0.53000000	0.80000000	0.80000000	45.00000000	2.95563489	5.02654825	0.80000000	0.80000000	0.80000000	0.81758838	124.90000000	89.30000000	136.20000000	160.50000000	124.90000000
66	328.00000000	651.50000000	32.80000000	65.20000000	0.48000000	0.90000000	0.20000000	79.65000000	2.55563486	3.81553916	0.80000000	0.70000000	0.90000000	0.77768167	103.80000000	75.90000000	112.90000000	130.30000000	103.80000000
67	484.00000000	518.00000000	48.40000000	51.80000000	1.02000000	1.50000000	0.80000000	26.83000000	4.03847759	7.39397902	1.50000000	0.80000000	1.50000000	1.13681051	165.70000000	121.20000000	182.10000000	198.10000000	165.70000000
68	684.00000000	864.50000000	68.40000000	86.50000000	1.38000000	1.50000000	1.10000000	172.53000000	4.60416300	8.21654502	1.50000000	1.20000000	1.50000000	1.32314186	172.60000000	130.50000000	188.40000000	202.10000000	172.70000000
69	802.50000000	252.00000000	80.20000000	25.20000000	0.32000000	0.70000000	0.50000000	45.00000000	2.15563487	3.79613689	0.60000000	0.60000000	0.70000000	0.63330124	140.40000000	101.60000000	152.70000000	179.10000000	140.50000000
70	540.00000000	302.00000000	54.00000000	30.20000000	0.40000000	0.80000000	0.50000000	60.80000000	2.47279218	4.13862761	0.80000000	0.70000000	0.80000000	0.70917531	115.60000000	83.80000000	126.20000000	144.00000000	115.60000000
71	879.50000000	828.00000000	88.00000000	82.80000000	0.80000000	1.20000000	0.90000000	159.22000000	3.57989894	6.63104765	1.10000000	1.00000000	1.20000000	1.00925301	166.20000000	123.90000000	181.40000000	198.40000000	166.20000000
72	412.50000000	802.50000000	41.20000000	80.20000000	0.72000000	1.00000000	0.90000000	137.39000000	3.43847758	5.97316043	1.00000000	1.00000000	1.00000000	0.95413116	132.00000000	95.00000000	143.70000000	168.60000000	132.00000000
73	69.00000000	326.00000000	6.90000000	32.60000000	0.47000000	1.00000000	0.80000000	56.22000000	2.75563489	5.67233358	0.90000000	0.70000000	1.00000000	0.76945201	111.40000000	83.00000000	120.70000000	138.60000000	111.50000000
74	609.50000000	609.50000000	61.00000000	61.00000000	1.33000000	1.80000000	0.90000000	172.54000000	4.94558436	8.71960339	1.80000000	1.10000000	1.80000000	1.30131034	142.30000000	102.10000000	155.70000000	178.70000000	142.30000000
75	742.00000000	273.00000000	74.20000000	27.30000000	1.06000000	1.60000000	0.90000000	168.07000000	4.15563489	8.00868922	1.50000000	0.90000000	1.60000000	1.15899427	151.30000000	108.80000000	165.20000000	190.90000000	151.30000000
76	421.00000000	744.50000000	42.10000000	74.50000000	1.59000000	2.00000000	1.20000000	23.13000000	5.61837656	10.21079955	2.00000000	1.20000000	2.00000000	1.42059307	128.20000000	90.30000000	140.00000000	167.20000000	128.20000000
77	526.50000000	622.00000000	52.70000000	62.20000000	0.82000000	1.10000000	0.70000000	166.76000000	3.41421353	5.72489813	1.10000000	0.90000000	1.10000000	1.02179079	139.60000000	100.00000000	152.50000000	177.00000000	139.60000000
78	1232.00000000	451.50000000	123.20000000	45.20000000	0.85000000	1.30000000	0.90000000	116.52000000	3.97989895	6.96874271	1.30000000	0.90000000	1.30000000	1.04031419	112.00000000	79.00000000	121.20000000	150.70000000	111.90000000
79	172.00000000	813.00000000	17.20000000	81.30000000	1.03000000	1.60000000	0.30000000	130.94000000	4.22842706	6.69101697	1.60000000	0.80000000	1.60000000	1.14517978	110.50000000	77.70000000	120.20000000	146.70000000	110.50000000
80	670.00000000	383.00000000	67.00000000	38.30000000	0.42000000	0.70000000	0.60000000	108.84000000	2.47279217	4.09011421	0.80000000	0.70000000	0.70000000	0.72690743	131.80000000	96.40000000	143.50000000	164.20000000	131.80000000
81	1037.00000000	550.00000000	103.70000000	55.00000000	1.15000000	1.70000000	0.90000000	102.24000000	4.56984841	8.36264176	1.60000000	1.00000000	1.70000000	1.20741844	139.60000000	99.60000000	152.40000000	179.10000000	139.70000000
82	940.00000000	614.00000000	94.00000000	61.40000000	0.84000000	1.30000000	0.90000000	24.77000000	3.63847760	6.96874271	1.30000000	0.90000000	1.30000000	1.03109409	129.80000000	94.40000000	140.80000000	166.40000000	129.90000000
83	90.50000000	813.00000000	9.10000000	81.30000000	1.14000000	1.40000000	1.10000000	48.67000000	4.34558437	7.88228151	1.30000000	1.10000000	1.40000000	1.20477927	104.60000000	75.30000000	113.80000000	133.60000000	104.60000000
84	675.00000000	442.50000000	67.50000000	44.20000000	1.46000000	1.90000000	0.70000000	19.38000000	5.45269114	8.60925894	2.00000000	1.00000000	1.90000000	1.36108910	147.10000000	106.20000000	160.70000000	184.50000000	147.10000000
85	1139.50000000	474.00000000	114.00000000	47.40000000	1.64000000	2.20000000	0.90000000	41.66000000	5.45269119	10.17203439	2.20000000	1.00000000	2.20000000	1.44282593	148.00000000	107.00000000	160.90000000	189.80000000	148.10000000
86	1071.50000000	100.00000000	107.20000000	10.00000000	2.47000000	2.10000000	1.30000000	99.93000000	6.14558436	10.82977347	2.00000000	1.50000000	2.10000000	1.77338706	151.40000000	107.90000000	165.10000000	194.60000000	151.40000000
87	268.50000000	712.00000000	26.90000000	71.20000000	0.56000000	0.90000000	0.70000000	126.60000000	3.03847759	5.04620245	0.90000000	0.80000000	0.90000000	0.84062355	98.70000000	72.70000000	107.00000000	123.60000000	98.70000000
88	860.50000000	734.50000000	86.10000000	73.50000000	0.39000000	0.70000000	0.60000000	117.22000000	2.33137082	4.09011421	0.70000000	0.70000000	0.70000000	0.70467256	100.30000000	72.20000000	108.70000000	131.00000000	100.30000000
89	1254.50000000	12.50000000	125.50000000	1.20000000	0.86000000	1.20000000	0.80000000	43.09000000	3.57989893	6.34617584	1.20000000	0.90000000	1.20000000	1.04641579	139.90000000	103.10000000	152.00000000	174.80000000	140.00000000
90	355.00000000	728.50000000	35.50000000	72.90000000	1.09000000	1.50000000	1.20000000	164.00000000	4.28700571	8.50850037	1.30000000	1.10000000	1.50000000	1.17535735	176.00000000	138.80000000	189.90000000	202.10000000	176.00000000
91	1208.00000000	661.50000000	120.80000000	66.20000000	0.52000000	0.90000000	0.60000000	85.33000000	2.73137083	4.75963188	0.90000000	0.70000000	0.90000000	0.81368579	111.90000000	79.10000000	120.80000000	152.70000000	111.90000000
92	1224.50000000	396.00000000	122.50000000	39.60000000	1.37000000	2.00000000	0.90000000	68.38000000	5.00416300	9.44137847	2.00000000	1.00000000	2.00000000	1.31832165	137.70000000	97.80000000	149.80000000	180.40000000	137.80000000
93	1017.00000000	697.00000000	101.70000000	69.70000000	0.55000000	0.90000000	0.80000000	176.88000000	2.75563487	5.34532850	0.80000000	0.80000000	0.90000000	0.83301594	124.70000000	86.20000000	135.90000000	168.30000000	124.80000000
94	1161.50000000	802.00000000	116.20000000	80.20000000	0.67000000	1.10000000	0.90000000	147.54000000	3.32132031	6.29890311	1.10000000	0.80000000	1.10000000	0.92016536	97.90000000	69.10000000	105.80000000	132.30000000	97.90000000
95	24.00000000	883.50000000	2.40000000	88.40000000	0.74000000	1.10000000	0.90000000	52.38000000	3.29705625	6.29890311	1.10000000	0.90000000	1.10000000	0.97066846	112.50000000	85.30000000	120.60000000	142.60000000	112.60000000
96	346.50000000	603.50000000	34.60000000	60.40000000	0.60000000	1.00000000	0.80000000	59.93000000	3.15563489	5.67233358	0.90000000	0.90000000	1.00000000	0.87038930	112.90000000	86.40000000	122.90000000	131.40000000	113.00000000
97	771.50000000	442.00000000	77.20000000	44.20000000	0.40000000	0.70000000	0.70000000	135.00000000	2.33137082	4.39822972	0.70000000	0.70000000	0.70000000	0.71364965	109.40000000	81.40000000	117.90000000	138.60000000	109.40000000
98	1268.00000000	419.50000000	126.80000000	42.00000000	0.99000000	1.60000000	0.90000000	16.91000000	4.03847759	8.00868922	1.50000000	0.90000000	1.60000000	1.11988435	123.30000000	87.20000000	133.50000000	165.70000000	123.40000000
99	638.50000000	659.00000000	63.90000000	65.90000000	0.61000000	0.90000000	0.80000000	22.59000000	2.95563487	5.34532850	0.90000000	0.80000000	0.90000000	0.87767302	146.00000000	105.40000000	160.50000000	177.80000000	146.00000000
100	103.50000000	635.50000000	10.40000000	63.60000000	2.00000000	2.30000000	1.20000000	50.13000000	6.35979788	11.26881696	2.30000000	1.20000000	2.30000000	1.59576912	133.50000000	96.90000000	145.10000000	170.50000000	133.60000000
101	1084.50000000	742.00000000	108.50000000	74.20000000	1.04000000	1.30000000	1.10000000	156.37000000	4.06274165	7.55291803	1.20000000	1.10000000	1.30000000	1.15072548	145.70000000	105.50000000	158.80000000	184.00000000	145.70000000
102	556.00000000	798.00000000	55.60000000	79.80000000	0.42000000	0.70000000	0.60000000	108.84000000	2.47279217	4.09011421	0.80000000	0.70000000	0.70000000	0.72690743	137.60000000	101.20000000	149.60000000	171.70000000	137.70000000
103	593.00000000	683.50000000	59.30000000	68.40000000	0.63000000	1.10000000	0.60000000	61.92000000	3.17989892	5.45684568	0.90000000	0.90000000	1.10000000	0.89562320	138.30000000	100.90000000	150.60000000	172.40000000	138.20000000
104	116.00000000	395.00000000	11.60000000	39.50000000	1.01000000	1.40000000	0.40000000	45.20000000	3.92132031	6.10035750	1.20000000	1.10000000	1.40000000	1.13119660	181.30000000	145.50000000	195.40000000	202.90000000	181.30000000
105	1120.00000000	117.50000000	112.00000000	11.80000000	0.67000000	1.00000000	0.80000000	141.47000000	3.09705622	5.67233358	0.90000000	0.90000000	1.00000000	0.92361815	123.90000000	86.20000000	135.20000000	164.30000000	123.90000000
106	1056.00000000	8.50000000	105.60000000	0.90000000	0.34000000	0.80000000	0.70000000	152.52000000	2.30710677	4.71762642	0.70000000	0.60000000	0.80000000	0.65309666	127.20000000	90.20000000	137.50000000	172.00000000	127.30000000
107	16.50000000	294.00000000	1.70000000	29.40000000	1.63000000	2.20000000	0.80000000	114.64000000	5.71126977	9.94530537	2.30000000	0.90000000	2.20000000	1.44061808	135.80000000	101.60000000	146.50000000	170.90000000	135.80000000
108	647.00000000	599.50000000	64.70000000	60.00000000	0.59000000	1.00000000	0.80000000	144.10000000	2.95563488	5.67233358	0.90000000	0.80000000	1.00000000	0.86304411	152.80000000	112.40000000	167.20000000	184.60000000	152.80000000
109	1144.50000000	764.00000000	114.50000000	76.40000000	0.98000000	1.50000000	0.70000000	170.07000000	4.12132030	7.14193743	1.40000000	0.90000000	1.50000000	1.11418515	134.30000000	92.90000000	146.70000000	178.60000000	134.30000000
110	1069.00000000	382.50000000	106.90000000	38.20000000	2.27000000	2.50000000	1.10000000	149.70000000	6.79411248	11.74154356	2.50000000	1.30000000	2.50000000	1.70007464	137.20000000	96.60000000	149.80000000	179.30000000	137.30000000
111	1268.50000000	559.50000000	126.90000000	56.00000000	0.76000000	1.30000000	0.70000000	28.57000000	3.49705623	6.42537074	1.30000000	0.80000000	1.30000000	0.98369815	111.60000000	77.20000000	120.70000000	154.90000000	111.60000000
112	880.00000000	791.00000000	88.00000000	79.10000000	0.65000000	1.00000000	0.40000000	33.99000000	3.12132026	4.60262249	0.90000000	0.80000000	1.00000000	0.90622266	103.10000000	73.10000000	111.90000000	135.70000000	103.00000000
113	323.00000000	230.00000000	32.30000000	23.00000000	0.34000000	0.80000000	0.60000000	61.32000000	2.33137083	4.42069843	0.70000000	0.60000000	0.80000000	0.65795246	110.70000000	82.00000000	120.50000000	136.10000000	110.70000000
114	741.50000000	368.50000000	74.20000000	36.90000000	0.90000000	1.50000000	0.90000000	105.75000000	5.05269113	7.65809966	1.50000000	1.00000000	1.50000000	1.06749679	137.80000000	99.40000000	150.60000000	172.50000000	137.80000000
115	701.50000000	131.50000000	70.20000000	13.20000000	1.14000000	1.70000000	0.80000000	30.30000000	4.48700573	8.11058223	1.70000000	0.90000000	1.70000000	1.20213430	159.00000000	119.30000000	172.70000000	192.10000000	159.00000000
116	1201.50000000	933.50000000	120.20000000	93.40000000	1.22000000	1.40000000	1.10000000	133.50000000	4.51126976	7.88228151	1.30000000	1.10000000	1.40000000	1.24633553	86.70000000	59.60000000	94.30000000	119.40000000	86.70000000
117	725.00000000	234.50000000	72.50000000	23.50000000	0.43000000	0.90000000	0.70000000	57.66000000	2.44852812	5.04620245	0.70000000	0.70000000	0.90000000	0.73992770	155.20000000	113.80000000	169.50000000	189.90000000	155.20000000
118	131.50000000	601.00000000	13.20000000	60.10000000	1.37000000	1.80000000	0.90000000	56.63000000	4.82842711	8.71960339	1.80000000	1.00000000	1.80000000	1.32073395	160.30000000	118.50000000	175.30000000	192.20000000	160.30000000
119	501.00000000	503.00000000	50.10000000	50.30000000	1.52000000	2.30000000	0.90000000	8.81000000	5.91126977	10.54020574	2.30000000	0.90000000	2.30000000	1.39115927	145.70000000	104.10000000	159.60000000	183.40000000	145.70000000
120	190.50000000	953.50000000	19.10000000	95.40000000	0.30000000	1.00000000	0.40000000	67.50000000	2.44852812	4.60262249	1.00000000	0.40000000	1.00000000	0.61803872	120.20000000	86.50000000	128.70000000	164.80000000	120.20000000
121	59.50000000	44.50000000	6.00000000	4.50000000	1.18000000	1.70000000	0.90000000	20.51000000	4.49705623	8.36264176	1.70000000	0.90000000	1.70000000	1.22573352	152.90000000	112.00000000	167.10000000	187.00000000	152.90000000
122	1152.50000000	538.50000000	115.20000000	53.90000000	2.02000000	2.30000000	1.20000000	46.68000000	6.51126977	11.26881696	2.30000000	1.30000000	2.30000000	1.60372812	134.80000000	93.50000000	147.10000000	180.30000000	134.80000000
123	941.50000000	940.50000000	94.20000000	94.10000000	2.19000000	2.50000000	1.20000000	120.69000000	6.47695522	11.98548636	2.50000000	1.20000000	2.50000000	1.66984868	132.90000000	93.40000000	144.50000000	176.50000000	132.90000000
124	1136.50000000	780.50000000	113.70000000	78.10000000	0.89000000	1.20000000	1.10000000	17.98000000	3.66274166	7.22907828	1.10000000	1.10000000	1.20000000	1.06451078	129.30000000	91.20000000	140.80000000	169.70000000	129.30000000
125	1200.50000000	588.00000000	120.10000000	58.80000000	1.12000000	1.70000000	1.00000000	68.28000000	4.71126975	8.62544451	1.60000000	1.00000000	1.70000000	1.19416426	108.70000000	75.80000000	117.80000000	148.20000000	108.70000000
126	1208.50000000	682.50000000	120.90000000	68.20000000	0.40000000	0.70000000	0.70000000	135.00000000	2.33137082	4.39822972	0.70000000	0.70000000	0.70000000	0.71364965	115.40000000	81.50000000	124.70000000	156.80000000	115.50000000
127	980.00000000	610.50000000	98.00000000	61.10000000	2.66000000	2.30000000	1.80000000	10.35000000	6.65269113	12.92846469	2.00000000	1.90000000	2.30000000	1.83860028	174.90000000	131.20000000	190.60000000	208.90000000	174.90000000
128	1167.50000000	672.00000000	116.80000000	67.20000000	0.97000000	1.70000000	1.00000000	34.24000000	4.76984841	8.62544451	1.60000000	0.90000000	1.70000000	1.10845666	118.40000000	82.80000000	128.90000000	157.70000000	118.40000000
129	7.50000000	763.50000000	0.80000000	76.40000000	0.56000000	1.50000000	0.40000000	163.16000000	3.64852812	6.48069397	1.50000000	0.50000000	1.50000000	0.84440165	131.10000000	88.10000000	140.90000000	193.60000000	131.10000000
130	1270.00000000	924.00000000	127.00000000	92.40000000	0.90000000	1.20000000	1.10000000	8.10000000	3.74558434	7.22907828	1.10000000	1.00000000	1.20000000	1.07047447	87.70000000	60.60000000	94.40000000	124.90000000	87.70000000
131	439.00000000	388.00000000	43.90000000	38.80000000	0.30000000	0.80000000	0.60000000	80.81000000	2.13137083	4.42069843	0.60000000	0.60000000	0.80000000	0.61803872	102.50000000	76.40000000	111.40000000	125.30000000	102.50000000
132	657.50000000	579.50000000	65.80000000	58.00000000	1.38000000	1.90000000	0.90000000	61.32000000	5.22842706	9.07926999	1.90000000	1.10000000	1.90000000	1.32554539	145.00000000	105.70000000	157.50000000	183.80000000	145.00000000
133	1097.50000000	128.00000000	109.80000000	12.80000000	0.83000000	1.20000000	1.00000000	164.31000000	3.68700571	6.92579120	1.10000000	1.00000000	1.20000000	1.02490128	130.00000000	91.30000000	141.80000000	170.50000000	130.00000000
134	326.50000000	774.00000000	32.60000000	77.40000000	0.45000000	0.90000000	0.70000000	95.73000000	2.77989893	5.04620245	0.80000000	0.80000000	0.90000000	0.75693976	92.00000000	66.60000000	99.40000000	120.80000000	92.00000000
135	1207.00000000	608.00000000	120.70000000	60.80000000	0.38000000	0.70000000	0.70000000	8.06000000	2.27279217	4.39822972	0.70000000	0.60000000	0.70000000	0.69098830	90.80000000	63.40000000	98.20000000	124.50000000	90.80000000
136	290.50000000	310.00000000	29.10000000	31.00000000	5.30000000	6.50000000	1.20000000	149.76000000	15.62081496	27.15274762	6.50000000	1.30000000	6.50000000	2.59649829	112.80000000	80.80000000	122.90000000	144.80000000	112.80000000
137	1054.00000000	83.50000000	105.40000000	8.30000000	0.74000000	1.10000000	0.80000000	141.97000000	3.57989895	6.00628745	1.10000000	0.80000000	1.10000000	0.97066846	120.00000000	83.40000000	131.60000000	157.30000000	120.10000000
138	965.50000000	748.00000000	96.60000000	74.80000000	2.69000000	3.20000000	1.10000000	4.26000000	8.59827552	14.32713667	3.20000000	1.50000000	3.20000000	1.84895867	136.40000000	96.30000000	148.80000000	177.90000000	136.40000000
139	217.00000000	384.50000000	21.70000000	38.50000000	0.39000000	0.70000000	0.40000000	54.56000000	2.35563487	3.52031622	0.70000000	0.60000000	0.70000000	0.70014086	90.00000000	65.00000000	98.60000000	111.10000000	90.00000000
140	602.00000000	747.50000000	60.20000000	74.80000000	0.93000000	1.50000000	0.70000000	57.34000000	4.08700571	7.14193743	1.50000000	0.80000000	1.50000000	1.08524033	158.70000000	117.00000000	173.20000000	193.90000000	158.80000000
141	299.00000000	720.00000000	29.90000000	72.00000000	0.45000000	0.90000000	0.60000000	36.93000000	2.61421353	4.75963188	0.80000000	0.70000000	0.90000000	0.75693976	90.70000000	64.60000000	98.70000000	117.20000000	90.60000000
142	665.50000000	489.00000000	66.50000000	48.90000000	1.20000000	1.60000000	1.00000000	171.38000000	4.72132031	8.27725521	1.50000000	1.10000000	1.60000000	1.23349960	156.60000000	114.20000000	171.70000000	190.60000000	156.60000000
143	682.50000000	491.50000000	68.20000000	49.20000000	0.34000000	0.80000000	0.60000000	75.01000000	2.18994948	4.42069843	0.70000000	0.60000000	0.80000000	0.65309666	138.50000000	101.50000000	150.50000000	174.50000000	138.60000000
144	740.50000000	219.00000000	74.00000000	21.90000000	0.72000000	1.20000000	0.80000000	30.58000000	3.46274164	6.34617584	1.20000000	0.80000000	1.20000000	0.95746147	150.10000000	108.40000000	164.20000000	187.00000000	150.10000000
145	250.00000000	190.00000000	25.00000000	19.00000000	1.52000000	2.00000000	0.80000000	66.80000000	5.62842705	9.20524498	2.00000000	1.20000000	2.00000000	1.39115927	139.50000000	101.20000000	152.00000000	175.50000000	139.50000000
146	529.00000000	770.50000000	52.90000000	77.10000000	0.75000000	1.10000000	0.80000000	142.35000000	3.40416298	6.00628745	1.10000000	0.80000000	1.10000000	0.97394223	155.70000000	112.80000000	171.10000000	188.90000000	155.70000000
147	727.50000000	70.00000000	72.80000000	7.00000000	1.15000000	1.70000000	0.70000000	42.14000000	4.53553388	7.87078800	1.70000000	0.80000000	1.70000000	1.20741844	160.00000000	120.70000000	173.50000000	193.80000000	160.00000000
148	987.50000000	545.00000000	98.80000000	54.50000000	1.58000000	2.00000000	1.00000000	30.81000000	5.71126978	9.68844822	2.00000000	1.20000000	2.00000000	1.41835062	147.30000000	106.90000000	160.00000000	187.30000000	147.30000000
149	256.50000000	152.50000000	25.70000000	15.20000000	1.63000000	2.20000000	0.90000000	66.68000000	6.34974736	10.17203439	2.20000000	1.10000000	2.20000000	1.43840685	118.70000000	86.80000000	129.40000000	147.00000000	118.70000000
150	508.50000000	645.50000000	50.90000000	64.50000000	2.44000000	2.80000000	1.10000000	55.35000000	7.37401142	12.84147814	2.80000000	1.20000000	2.80000000	1.76258460	121.70000000	90.20000000	131.90000000	152.20000000	121.80000000
151	672.00000000	951.50000000	67.20000000	95.20000000	0.81000000	1.60000000	0.80000000	59.50000000	4.37989894	7.75075857	1.60000000	0.80000000	1.60000000	1.01554125	121.20000000	88.50000000	130.20000000	160.80000000	121.20000000
152	606.50000000	665.00000000	60.70000000	66.50000000	1.81000000	2.00000000	1.10000000	126.91000000	5.75979791	9.94525880	2.00000000	1.20000000	2.00000000	1.51807891	161.90000000	122.00000000	176.10000000	194.40000000	162.00000000
153	1242.50000000	412.00000000	124.20000000	41.20000000	1.67000000	2.40000000	1.00000000	158.43000000	6.01837655	11.13918983	2.30000000	1.00000000	2.40000000	1.45600269	119.80000000	85.90000000	129.70000000	157.90000000	119.80000000
154	701.50000000	157.00000000	70.20000000	15.70000000	1.54000000	1.90000000	0.90000000	98.63000000	5.28700570	9.07926999	1.90000000	1.10000000	1.90000000	1.39800669	147.10000000	108.10000000	159.60000000	184.60000000	147.10000000
155	705.00000000	936.00000000	70.50000000	93.60000000	0.82000000	1.20000000	0.30000000	45.32000000	3.52132031	5.14705178	1.30000000	0.80000000	1.20000000	1.01867081	139.20000000	101.50000000	150.60000000	179.80000000	139.30000000
156	430.00000000	359.50000000	43.00000000	36.00000000	1.80000000	1.80000000	1.60000000	53.64000000	6.21837653	10.69065700	1.80000000	1.70000000	1.80000000	1.51177544	97.00000000	71.60000000	105.50000000	119.20000000	96.90000000
157	692.00000000	919.00000000	69.20000000	91.90000000	2.16000000	2.70000000	0.90000000	158.84000000	6.71126977	12.02840350	2.60000000	1.10000000	2.70000000	1.65837192	154.30000000	113.70000000	167.20000000	194.80000000	154.30000000
158	409.00000000	941.50000000	40.90000000	94.20000000	0.38000000	0.80000000	0.70000000	116.76000000	2.49705625	4.71762642	0.70000000	0.70000000	0.80000000	0.69557963	89.50000000	65.30000000	97.00000000	114.50000000	89.50000000
159	666.00000000	352.50000000	66.60000000	35.20000000	1.58000000	2.10000000	1.00000000	113.79000000	5.56984842	10.04798821	2.10000000	1.10000000	2.10000000	1.41610462	150.90000000	110.10000000	164.70000000	187.30000000	151.00000000
160	137.50000000	521.50000000	13.80000000	52.20000000	1.53000000	2.00000000	0.90000000	86.25000000	5.42842706	9.44137847	1.90000000	1.10000000	2.00000000	1.39572795	144.70000000	106.30000000	157.50000000	180.10000000	144.80000000
161	731.50000000	409.50000000	73.20000000	41.00000000	0.33000000	0.70000000	0.50000000	14.29000000	2.27279218	3.79613689	0.70000000	0.60000000	0.70000000	0.64327510	101.30000000	75.10000000	110.00000000	125.20000000	101.30000000
162	1016.50000000	261.50000000	101.70000000	26.20000000	0.44000000	0.70000000	0.70000000	43.28000000	2.66274165	4.39822972	0.70000000	0.70000000	0.70000000	0.74848206	89.20000000	63.40000000	96.60000000	119.10000000	89.20000000
163	588.50000000	15.00000000	58.90000000	1.50000000	1.27000000	1.90000000	0.80000000	37.59000000	5.40416304	8.83808840	1.50000000	1.40000000	1.90000000	1.26911309	150.20000000	111.20000000	162.10000000	191.60000000	150.20000000
164	268.00000000	917.00000000	26.80000000	91.70000000	1.65000000	2.50000000	0.90000000	118.66000000	6.50121922	11.28145555	2.50000000	1.00000000	2.50000000	1.44723151	103.50000000	76.20000000	111.50000000	133.80000000	103.50000000
165	510.00000000	786.00000000	51.00000000	78.60000000	1.70000000	1.90000000	1.30000000	71.95000000	5.71126975	10.14164966	1.90000000	1.30000000	1.90000000	1.47122644	158.60000000	116.30000000	173.30000000	194.40000000	158.60000000
166	826.50000000	856.00000000	82.70000000	85.60000000	1.15000000	1.80000000	0.70000000	111.71000000	4.80416300	8.23895513	1.80000000	0.90000000	1.80000000	1.20741844	128.60000000	91.50000000	139.80000000	168.30000000	128.60000000
167	811.50000000	436.50000000	81.20000000	43.70000000	2.33000000	2.30000000	1.20000000	84.88000000	7.54974738	11.26881696	2.30000000	1.70000000	2.30000000	1.72054699	129.50000000	94.60000000	140.20000000	165.70000000	129.50000000
168	399.50000000	231.50000000	40.00000000	23.20000000	0.77000000	1.20000000	0.90000000	129.41000000	3.96984842	6.63104765	1.20000000	1.00000000	1.20000000	0.98692870	92.90000000	69.80000000	100.40000000	115.50000000	92.90000000
169	200.00000000	831.00000000	20.00000000	83.10000000	0.38000000	0.90000000	0.50000000	100.70000000	2.55563489	4.48845712	0.90000000	0.60000000	0.90000000	0.69098830	87.00000000	64.90000000	94.60000000	106.30000000	87.00000000
170	722.00000000	194.50000000	72.20000000	19.50000000	0.94000000	1.40000000	1.00000000	13.82000000	4.51126977	7.59227379	1.20000000	1.20000000	1.40000000	1.09400419	110.70000000	77.80000000	121.10000000	143.60000000	110.70000000
171	910.00000000	619.00000000	91.00000000	61.90000000	1.95000000	2.20000000	1.10000000	59.64000000	8.11126977	10.65729304	2.10000000	1.80000000	2.20000000	1.57569575	142.10000000	103.20000000	154.10000000	182.60000000	142.10000000
172	758.50000000	496.00000000	75.90000000	49.60000000	2.29000000	2.70000000	1.20000000	36.79000000	7.75979789	12.70967954	2.70000000	1.30000000	2.70000000	1.70754753	173.60000000	132.00000000	188.50000000	205.60000000	173.60000000
173	818.00000000	953.50000000	81.80000000	95.40000000	0.33000000	0.00000000	0.00000000	0.00000000	2.64852811	2.64852811	1.10000000	0.40000000	0.00000000	0.64820448	115.10000000	81.40000000	124.30000000	155.90000000	115.10000000
174	1113.00000000	103.50000000	111.30000000	10.40000000	0.32000000	0.50000000	0.80000000	178.21000000	2.44852812	4.13862761	0.80000000	0.50000000	0.50000000	0.63830765	107.00000000	75.40000000	117.60000000	135.80000000	107.00000000
175	1078.00000000	781.00000000	107.80000000	78.10000000	0.47000000	0.90000000	0.80000000	25.43000000	2.83847760	5.34532850	0.80000000	0.80000000	0.90000000	0.76945201	87.20000000	60.90000000	95.40000000	113.30000000	87.10000000
176	590.00000000	614.50000000	59.00000000	61.50000000	1.12000000	2.00000000	1.30000000	116.43000000	7.77401141	10.48420720	1.90000000	1.30000000	2.00000000	1.19416426	91.80000000	68.20000000	99.90000000	111.70000000	91.80000000
177	912.00000000	606.50000000	91.20000000	60.70000000	1.05000000	2.20000000	0.30000000	73.76000000	4.95563488	9.03681735	2.10000000	0.70000000	2.20000000	1.15348833	148.20000000	108.50000000	160.10000000	190.60000000	148.20000000
178	942.00000000	579.00000000	94.20000000	57.90000000	1.36000000	1.70000000	0.80000000	19.38000000	5.31126976	8.11058223	1.60000000	1.20000000	1.70000000	1.31590493	105.10000000	80.00000000	114.20000000	123.30000000	105.00000000
179	558.50000000	766.50000000	55.90000000	76.70000000	1.77000000	2.50000000	0.40000000	54.85000000	6.13553380	10.35065658	2.50000000	1.10000000	2.50000000	1.49908899	166.80000000	124.00000000	181.90000000	201.00000000	166.80000000
180	578.00000000	884.50000000	57.80000000	88.50000000	1.15000000	1.50000000	0.70000000	148.21000000	4.26274164	7.14193743	1.40000000	1.10000000	1.50000000	1.21005185	152.30000000	113.40000000	164.60000000	190.80000000	152.30000000
181	1237.50000000	695.50000000	123.80000000	69.50000000	0.80000000	1.10000000	1.00000000	67.84000000	3.52132028	6.60108509	1.10000000	1.00000000	1.10000000	1.00609415	76.30000000	54.70000000	82.60000000	101.30000000	76.40000000
182	120.50000000	465.50000000	12.10000000	46.60000000	1.49000000	1.90000000	1.10000000	119.10000000	5.36984843	9.59308786	1.90000000	1.10000000	1.90000000	1.37504935	140.90000000	100.20000000	154.20000000	179.70000000	140.90000000
183	925.00000000	367.00000000	92.50000000	36.70000000	11.58000000	14.60000000	1.00000000	67.63000000	32.98477601	58.88768133	14.60000000	1.10000000	14.60000000	3.83980650	127.90000000	92.30000000	138.70000000	166.00000000	127.90000000
184	58.50000000	621.50000000	5.90000000	62.20000000	2.33000000	2.30000000	1.40000000	104.79000000	7.69116870	11.79647678	2.30000000	1.60000000	2.30000000	1.72239605	125.30000000	92.20000000	135.60000000	159.40000000	125.30000000
185	392.00000000	544.50000000	39.20000000	54.50000000	0.44000000	0.80000000	0.70000000	63.33000000	2.72132028	4.71762642	0.80000000	0.70000000	0.80000000	0.74421717	83.90000000	63.30000000	90.50000000	104.20000000	83.90000000
186	747.00000000	247.50000000	74.70000000	24.80000000	0.73000000	1.40000000	0.60000000	59.91000000	4.06274165	6.53713333	1.50000000	0.80000000	1.40000000	0.96408758	120.50000000	87.60000000	130.60000000	154.50000000	120.50000000
187	570.50000000	926.50000000	57.10000000	92.70000000	0.63000000	1.00000000	0.90000000	114.39000000	3.15563488	5.97316043	0.90000000	0.90000000	1.00000000	0.89206206	140.10000000	103.90000000	151.80000000	175.00000000	140.10000000
188	991.50000000	27.50000000	99.20000000	2.80000000	1.00000000	1.30000000	0.90000000	9.55000000	3.75563487	6.96874271	1.30000000	0.90000000	1.30000000	1.12555468	127.50000000	92.40000000	138.00000000	166.10000000	127.60000000
189	903.50000000	266.50000000	90.40000000	26.70000000	0.25000000	0.70000000	0.50000000	161.78000000	1.95563488	3.79613689	0.60000000	0.50000000	0.70000000	0.55851919	89.20000000	65.60000000	97.00000000	110.40000000	89.20000000

#3
liczenie
obiektów (w)	udział punktów	pole obrazu(mm²)
	24	100.00	12288.0000
nr.	x(pix.):	y(pix.):	x(mm):	y(mm):	powierzchnia:(mm²)	długość:(mm)	szerokość:(mm)	kąt:(°)	obwód:(mm)	obwód C.:(mm)	średnica Fereta H(mm)	średnica Fereta V(mm)	średn. Martina:(mm)	średn. sitowa:(mm)	średnia jaskrawość	R	G	B	Y
1	78.00000000	239.50000000	7.80000000	24.00000000	0.77000000	1.30000000	0.80000000	67.88000000	3.52132028	6.69118043	1.20000000	0.80000000	1.30000000	0.98692870	138.60000000	107.00000000	150.10000000	162.30000000	138.60000000
2	509.50000000	25.50000000	51.00000000	2.60000000	1.34000000	1.70000000	0.70000000	66.10000000	4.37989895	7.87078800	1.50000000	1.10000000	1.70000000	1.30619332	121.90000000	93.40000000	130.80000000	150.80000000	121.90000000
3	145.50000000	827.00000000	14.60000000	82.70000000	0.54000000	1.10000000	0.60000000	28.26000000	2.81421351	5.45684568	1.00000000	0.70000000	1.10000000	0.82918596	145.30000000	112.60000000	157.60000000	168.50000000	145.40000000
4	1223.50000000	767.00000000	122.40000000	76.70000000	1.04000000	1.50000000	0.40000000	6.63000000	4.09705623	6.48069397	1.50000000	0.90000000	1.50000000	1.15072548	128.10000000	93.70000000	140.30000000	155.20000000	128.10000000
5	973.50000000	882.50000000	97.40000000	88.20000000	0.93000000	1.60000000	0.90000000	18.13000000	4.25269119	8.00868922	1.40000000	0.80000000	1.60000000	1.08524033	144.90000000	109.50000000	158.60000000	167.40000000	144.90000000
6	718.00000000	676.00000000	71.80000000	67.60000000	0.93000000	1.50000000	0.80000000	31.95000000	3.86274165	7.39397902	1.30000000	0.90000000	1.50000000	1.08816946	146.80000000	113.10000000	159.30000000	170.80000000	146.80000000
7	943.50000000	699.00000000	94.40000000	69.90000000	0.60000000	1.20000000	0.70000000	81.35000000	3.15563489	6.07282316	1.20000000	0.70000000	1.20000000	0.87038930	139.40000000	112.40000000	149.40000000	158.50000000	139.40000000
8	409.50000000	549.00000000	41.00000000	54.90000000	0.52000000	1.00000000	0.50000000	169.43000000	2.67279216	4.84422411	0.90000000	0.70000000	1.00000000	0.80976439	144.70000000	114.10000000	156.10000000	166.20000000	144.70000000
9	582.50000000	407.00000000	58.20000000	40.70000000	0.34000000	0.70000000	0.60000000	176.50000000	2.33137083	4.09011421	0.70000000	0.60000000	0.70000000	0.65795246	140.30000000	110.70000000	151.50000000	160.20000000	140.30000000
10	418.50000000	148.50000000	41.90000000	14.90000000	1.19000000	2.00000000	0.80000000	57.00000000	4.94558437	9.20524498	2.00000000	0.90000000	2.00000000	1.23091635	126.30000000	95.20000000	135.90000000	158.80000000	126.30000000
11	849.00000000	476.00000000	84.90000000	47.60000000	0.72000000	1.40000000	0.40000000	95.20000000	3.43847760	6.10035750	1.40000000	0.70000000	1.40000000	0.95413116	121.80000000	94.60000000	131.50000000	143.00000000	121.80000000
12	333.00000000	32.00000000	33.30000000	3.20000000	0.41000000	0.80000000	0.60000000	50.60000000	2.41421351	4.42069843	0.80000000	0.60000000	0.80000000	0.72251520	83.30000000	67.20000000	88.20000000	100.50000000	83.30000000
13	181.50000000	151.00000000	18.20000000	15.10000000	1.61000000	2.10000000	0.70000000	86.90000000	5.57989894	9.35542495	2.10000000	0.90000000	2.10000000	1.43175266	142.60000000	107.40000000	154.20000000	176.10000000	142.70000000
14	230.50000000	107.50000000	23.10000000	10.80000000	0.80000000	1.20000000	0.80000000	31.12000000	3.43847759	6.34617584	1.20000000	0.80000000	1.20000000	1.00609415	122.30000000	88.70000000	132.80000000	156.40000000	122.30000000
15	69.50000000	287.50000000	7.00000000	28.80000000	1.67000000	1.90000000	1.00000000	132.84000000	5.93553386	9.33134210	1.90000000	1.20000000	1.90000000	1.45600269	115.80000000	90.20000000	123.60000000	142.90000000	115.80000000
16	851.50000000	616.50000000	85.20000000	61.70000000	0.55000000	0.80000000	0.90000000	136.33000000	2.97989895	5.34532850	0.90000000	0.80000000	0.80000000	0.83682839	112.00000000	91.00000000	121.40000000	118.70000000	112.00000000
17	328.00000000	721.00000000	32.80000000	72.10000000	1.37000000	2.00000000	0.80000000	52.31000000	4.88700571	9.20524498	2.00000000	0.90000000	2.00000000	1.31832165	186.60000000	155.70000000	197.70000000	210.70000000	186.60000000
18	1157.00000000	432.50000000	115.70000000	43.20000000	1.59000000	1.80000000	1.00000000	46.17000000	5.11126975	8.97691424	1.80000000	1.10000000	1.80000000	1.42283199	183.10000000	151.50000000	193.80000000	210.90000000	183.10000000
19	205.00000000	621.50000000	20.50000000	62.20000000	1.49000000	2.30000000	0.90000000	7.99000000	6.07695516	10.54020574	2.30000000	1.00000000	2.30000000	1.37736231	157.40000000	122.80000000	169.70000000	185.50000000	157.50000000
20	1062.50000000	111.00000000	106.20000000	11.10000000	0.42000000	0.80000000	0.80000000	22.10000000	2.38994946	5.02654825	0.70000000	0.70000000	0.80000000	0.72690743	76.50000000	57.50000000	82.80000000	94.20000000	76.50000000
21	182.00000000	124.00000000	18.20000000	12.40000000	1.46000000	2.10000000	0.90000000	16.20000000	5.40416300	9.80569999	2.00000000	1.00000000	2.10000000	1.36108910	112.50000000	84.20000000	121.20000000	142.00000000	112.50000000
22	1214.00000000	587.50000000	121.40000000	58.80000000	1.06000000	2.10000000	0.70000000	53.26000000	5.39411248	9.35542495	2.00000000	0.90000000	2.10000000	1.16173746	101.20000000	75.60000000	110.40000000	121.10000000	101.20000000
23	815.00000000	362.00000000	81.50000000	36.20000000	0.87000000	1.60000000	0.20000000	41.80000000	3.94558442	6.54895320	1.60000000	0.70000000	1.60000000	1.05248202	98.60000000	78.90000000	106.10000000	111.00000000	98.50000000
24	822.50000000	453.00000000	82.20000000	45.30000000	0.23000000	0.70000000	0.30000000	82.17000000	1.78994948	3.26856666	0.60000000	0.50000000	0.70000000	0.53523723	86.20000000	69.80000000	93.70000000	90.30000000	86.20000000

#4
liczenie
obiektów (w)	udział punktów	pole obrazu(mm²)
	17	100.00	12288.0000
nr.	x(pix.):	y(pix.):	x(mm):	y(mm):	powierzchnia:(mm²)	długość:(mm)	szerokość:(mm)	kąt:(°)	obwód:(mm)	obwód C.:(mm)	średnica Fereta H(mm)	średnica Fereta V(mm)	średn. Martina:(mm)	średn. sitowa:(mm)	średnia jaskrawość	R	G	B	Y
1	754.00000000	728.00000000	75.40000000	72.80000000	0.51000000	0.90000000	0.70000000	85.83000000	2.67279217	5.04620245	0.90000000	0.70000000	0.90000000	0.80186406	126.20000000	92.70000000	136.90000000	159.00000000	126.20000000
2	235.50000000	768.00000000	23.60000000	76.80000000	0.44000000	0.90000000	0.70000000	31.71000000	2.53137082	5.04620245	0.80000000	0.70000000	0.90000000	0.74848206	122.40000000	91.20000000	132.90000000	150.10000000	122.40000000
3	643.00000000	206.00000000	64.30000000	20.60000000	0.74000000	1.10000000	0.80000000	170.35000000	3.41421354	6.00628745	1.10000000	0.80000000	1.10000000	0.97066846	158.70000000	122.10000000	172.30000000	184.50000000	158.70000000
4	788.50000000	813.00000000	78.90000000	81.30000000	0.88000000	1.50000000	0.80000000	19.95000000	4.06274166	7.39397902	1.50000000	0.80000000	1.50000000	1.05851349	131.30000000	93.00000000	142.50000000	174.40000000	131.30000000
5	1213.50000000	411.50000000	121.40000000	41.20000000	0.86000000	1.40000000	0.60000000	71.82000000	3.63847759	6.53713333	1.20000000	0.90000000	1.40000000	1.04336945	103.00000000	70.40000000	111.20000000	146.20000000	103.00000000
6	658.00000000	397.50000000	65.80000000	39.80000000	1.54000000	2.40000000	0.60000000	102.46000000	5.76984843	10.29410356	2.40000000	1.00000000	2.40000000	1.39800669	154.70000000	118.80000000	167.00000000	186.20000000	154.80000000
7	918.00000000	73.50000000	91.80000000	7.40000000	0.37000000	0.80000000	0.60000000	51.78000000	2.27279216	4.42069843	0.70000000	0.60000000	0.80000000	0.68171287	89.30000000	64.70000000	97.20000000	112.70000000	89.30000000
8	518.50000000	502.50000000	51.90000000	50.20000000	0.63000000	1.10000000	0.70000000	86.32000000	3.01421351	5.72489813	1.10000000	0.70000000	1.10000000	0.89562320	171.30000000	138.60000000	183.30000000	195.70000000	171.30000000
9	1039.50000000	121.50000000	104.00000000	12.20000000	2.55000000	3.50000000	0.90000000	112.05000000	8.24264059	15.05867439	3.50000000	1.00000000	3.50000000	1.80187703	140.10000000	101.50000000	152.60000000	176.70000000	140.10000000
10	1214.50000000	9.50000000	121.50000000	1.00000000	0.63000000	0.00000000	0.00000000	0.00000000	2.93137082	2.93137082	0.90000000	0.80000000	0.00000000	0.89562320	125.50000000	91.30000000	136.10000000	160.20000000	125.50000000
11	937.50000000	174.00000000	93.80000000	17.40000000	1.37000000	1.70000000	0.80000000	132.53000000	5.34558433	8.11058223	1.70000000	1.20000000	1.70000000	1.32073395	111.70000000	83.00000000	121.00000000	139.10000000	111.70000000
12	922.50000000	146.50000000	92.20000000	14.70000000	1.03000000	1.60000000	0.90000000	121.34000000	4.12132031	8.00868922	1.60000000	0.90000000	1.60000000	1.14239684	164.20000000	127.80000000	177.20000000	192.40000000	164.20000000
13	578.00000000	168.00000000	57.80000000	16.80000000	0.30000000	0.70000000	0.60000000	175.51000000	2.15563488	4.09011421	0.60000000	0.60000000	0.70000000	0.61286676	95.50000000	75.70000000	103.80000000	105.30000000	95.60000000
14	1183.50000000	180.00000000	118.40000000	18.00000000	1.50000000	2.10000000	0.90000000	93.38000000	5.87695518	9.80569999	2.10000000	1.20000000	2.10000000	1.38197660	92.90000000	66.50000000	100.50000000	122.90000000	92.90000000
15	1083.50000000	324.00000000	108.40000000	32.40000000	2.19000000	2.00000000	1.50000000	94.02000000	7.81837652	11.05174608	1.90000000	1.80000000	2.00000000	1.66794137	121.80000000	87.00000000	132.10000000	160.40000000	121.80000000
16	574.00000000	408.50000000	57.40000000	40.90000000	0.34000000	0.70000000	0.60000000	175.35000000	2.18994946	4.09011421	0.70000000	0.60000000	0.70000000	0.65309666	79.90000000	65.10000000	85.80000000	88.30000000	79.90000000
17	226.50000000	84.00000000	22.70000000	8.40000000	1.41000000	1.50000000	0.90000000	179.13000000	4.56984842	7.65809966	1.30000000	1.30000000	1.50000000	1.33749825	90.20000000	69.20000000	99.00000000	99.90000000	90.20000000

#5
liczenie
obiektów (w)	udział punktów	pole obrazu(mm²)
	19	100.00	12288.0000
nr.	x(pix.):	y(pix.):	x(mm):	y(mm):	powierzchnia:(mm²)	długość:(mm)	szerokość:(mm)	kąt:(°)	obwód:(mm)	obwód C.:(mm)	średnica Fereta H(mm)	średnica Fereta V(mm)	średn. Martina:(mm)	średn. sitowa:(mm)	średnia jaskrawość	R	G	B	Y
1	1117.00000000	910.50000000	111.70000000	91.10000000	0.69000000	1.20000000	0.50000000	15.63000000	3.27279218	5.56959491	1.20000000	0.70000000	1.20000000	0.93389993	138.90000000	102.60000000	151.60000000	169.00000000	138.90000000
2	307.50000000	290.50000000	30.80000000	29.10000000	0.81000000	1.30000000	0.50000000	75.82000000	3.53137081	5.93775178	1.30000000	0.70000000	1.30000000	1.01554125	161.90000000	130.50000000	173.40000000	185.00000000	161.90000000
3	619.50000000	621.00000000	62.00000000	62.10000000	1.19000000	1.50000000	0.90000000	46.99000000	4.20416299	7.65809966	1.50000000	1.00000000	1.50000000	1.22832767	160.90000000	125.50000000	173.50000000	188.90000000	160.90000000
4	30.00000000	541.00000000	3.00000000	54.10000000	1.07000000	1.50000000	1.00000000	29.90000000	3.97989894	7.93271979	1.40000000	1.00000000	1.50000000	1.16720449	162.30000000	130.50000000	174.30000000	184.10000000	162.30000000
5	1069.00000000	790.00000000	106.90000000	79.00000000	0.92000000	1.60000000	0.70000000	70.47000000	4.12132030	7.50501473	1.60000000	0.80000000	1.60000000	1.07935823	145.40000000	110.40000000	157.80000000	173.30000000	145.40000000
6	1233.50000000	562.50000000	123.40000000	56.20000000	1.32000000	1.90000000	0.40000000	169.01000000	4.89705625	8.01703907	1.90000000	0.90000000	1.90000000	1.29640896	149.40000000	112.60000000	162.00000000	180.80000000	149.40000000
7	511.50000000	235.50000000	51.20000000	23.60000000	0.70000000	1.30000000	0.80000000	4.05000000	3.32132030	6.69118043	1.10000000	0.80000000	1.30000000	0.94069202	122.30000000	95.40000000	130.90000000	148.70000000	122.30000000
8	10.50000000	788.50000000	1.10000000	78.90000000	0.66000000	0.90000000	0.90000000	45.00000000	2.95563486	5.65486678	0.90000000	0.80000000	0.90000000	0.91322062	136.50000000	108.00000000	146.50000000	159.40000000	136.50000000
9	130.00000000	25.00000000	13.00000000	2.50000000	0.87000000	1.50000000	0.70000000	54.81000000	3.94558439	7.14193743	1.50000000	0.80000000	1.50000000	1.05248202	128.00000000	100.50000000	136.60000000	156.50000000	128.10000000
10	1243.00000000	11.50000000	124.30000000	1.20000000	0.81000000	1.30000000	0.80000000	125.58000000	3.57989893	6.69118043	1.30000000	0.80000000	1.30000000	1.01554125	121.20000000	89.20000000	131.10000000	154.30000000	121.20000000
11	880.00000000	665.50000000	88.00000000	66.50000000	0.71000000	0.90000000	1.00000000	45.00000000	3.13137083	5.97316043	0.90000000	0.90000000	0.90000000	0.95078919	168.70000000	137.10000000	180.30000000	191.80000000	168.70000000
12	760.50000000	845.50000000	76.00000000	84.60000000	0.54000000	1.00000000	0.60000000	69.63000000	2.73137082	5.10539977	0.90000000	0.70000000	1.00000000	0.82918596	111.00000000	87.50000000	118.90000000	132.10000000	111.00000000
13	445.50000000	831.00000000	44.60000000	83.10000000	0.34000000	0.80000000	0.80000000	106.00000000	2.49705625	5.02654825	0.70000000	0.60000000	0.80000000	0.65795246	106.10000000	83.30000000	113.10000000	130.40000000	106.10000000
14	898.00000000	754.50000000	89.80000000	75.50000000	0.99000000	1.70000000	0.50000000	39.28000000	4.46274165	7.43594950	1.60000000	0.80000000	1.70000000	1.12272310	130.10000000	98.50000000	140.50000000	159.90000000	130.10000000
15	223.50000000	699.50000000	22.40000000	70.00000000	1.20000000	1.70000000	0.30000000	18.09000000	4.54558433	7.08006247	1.70000000	1.00000000	1.70000000	1.23607745	116.00000000	89.40000000	124.40000000	142.50000000	116.00000000
16	324.00000000	571.00000000	32.40000000	57.10000000	0.55000000	0.90000000	0.80000000	66.93000000	2.95563489	5.34532850	0.90000000	0.80000000	0.90000000	0.83301594	140.40000000	108.00000000	151.70000000	168.10000000	140.50000000
17	949.00000000	937.00000000	94.90000000	93.70000000	1.07000000	1.90000000	0.70000000	59.92000000	4.88700575	8.60925894	1.90000000	0.90000000	1.90000000	1.16447418	120.60000000	91.30000000	130.70000000	145.40000000	120.60000000
18	77.00000000	541.50000000	7.70000000	54.20000000	3.40000000	5.20000000	0.90000000	79.27000000	11.83259008	21.62985164	5.20000000	1.10000000	5.20000000	2.07909794	106.80000000	84.10000000	113.80000000	130.00000000	106.80000000
19	321.00000000	562.50000000	32.10000000	56.20000000	0.56000000	0.90000000	0.80000000	67.45000000	2.95563489	5.34532850	0.90000000	0.80000000	0.90000000	0.84062355	139.80000000	106.90000000	151.30000000	167.00000000	139.80000000

#6
liczenie
obiektów (w)	udział punktów	pole obrazu(mm²)
	11	100.00	12288.0000
nr.	x(pix.):	y(pix.):	x(mm):	y(mm):	powierzchnia:(mm²)	długość:(mm)	szerokość:(mm)	kąt:(°)	obwód:(mm)	obwód C.:(mm)	średnica Fereta H(mm)	średnica Fereta V(mm)	średn. Martina:(mm)	średn. sitowa:(mm)	średnia jaskrawość	R	G	B	Y
1	637.00000000	322.00000000	63.70000000	32.20000000	0.84000000	1.30000000	0.70000000	52.55000000	3.52132031	6.42537074	1.20000000	0.80000000	1.30000000	1.03109409	147.20000000	108.70000000	160.70000000	178.50000000	147.20000000
2	211.00000000	581.00000000	21.10000000	58.10000000	0.73000000	1.20000000	0.70000000	45.58000000	3.46274167	6.07282316	1.30000000	0.70000000	1.20000000	0.96408758	157.30000000	115.60000000	172.50000000	188.80000000	157.30000000
3	10.50000000	338.50000000	1.10000000	33.90000000	0.71000000	0.00000000	0.00000000	0.00000000	3.30710676	3.30710676	1.10000000	0.70000000	0.00000000	0.94743542	147.60000000	105.40000000	161.60000000	186.40000000	147.60000000
4	316.50000000	680.50000000	31.70000000	68.00000000	1.13000000	1.80000000	0.60000000	52.60000000	4.48700573	8.01893567	1.70000000	0.80000000	1.80000000	1.19682684	141.60000000	102.50000000	154.60000000	177.20000000	141.60000000
5	797.00000000	831.00000000	79.70000000	83.10000000	0.81000000	1.60000000	0.70000000	56.79000000	4.25269110	7.50501473	1.50000000	0.80000000	1.60000000	1.01240201	148.80000000	108.90000000	162.70000000	182.10000000	148.80000000
6	209.00000000	675.00000000	20.90000000	67.50000000	1.31000000	2.00000000	0.70000000	72.44000000	5.06274165	8.98147895	2.00000000	1.00000000	2.00000000	1.29148899	149.10000000	108.00000000	162.40000000	188.70000000	149.20000000
7	527.50000000	530.00000000	52.80000000	53.00000000	1.93000000	2.20000000	1.00000000	20.59000000	6.25269111	10.40974761	2.30000000	1.20000000	2.20000000	1.56556256	162.80000000	120.60000000	177.50000000	198.20000000	162.80000000
8	226.50000000	161.50000000	22.70000000	16.20000000	1.60000000	2.20000000	1.10000000	13.63000000	5.93553381	10.65729304	2.20000000	1.20000000	2.20000000	1.42506739	134.70000000	96.00000000	147.00000000	173.20000000	134.70000000
9	863.50000000	406.00000000	86.40000000	40.60000000	2.60000000	3.60000000	0.90000000	50.70000000	8.42253952	15.44115534	3.60000000	0.90000000	3.60000000	1.81945674	172.20000000	128.50000000	187.50000000	208.20000000	172.20000000
10	1102.50000000	279.00000000	110.20000000	27.90000000	0.33000000	0.70000000	0.50000000	76.70000000	2.21421351	3.79613689	0.70000000	0.60000000	0.70000000	0.64820448	70.30000000	51.60000000	77.30000000	83.20000000	70.30000000
11	1117.00000000	5.50000000	111.70000000	0.60000000	0.65000000	0.00000000	0.00000000	0.00000000	4.81421354	4.81421354	2.20000000	0.40000000	0.00000000	0.90972837	48.70000000	34.90000000	51.90000000	68.60000000	48.70000000

#7
liczenie
obiektów (w)	udział punktów	pole obrazu(mm²)
	18	100.00	12288.0000
nr.	x(pix.):	y(pix.):	x(mm):	y(mm):	powierzchnia:(mm²)	długość:(mm)	szerokość:(mm)	kąt:(°)	obwód:(mm)	obwód C.:(mm)	średnica Fereta H(mm)	średnica Fereta V(mm)	średn. Martina:(mm)	średn. sitowa:(mm)	średnia jaskrawość	R	G	B	Y
1	20.00000000	398.00000000	2.00000000	39.80000000	0.80000000	1.10000000	0.90000000	4.07000000	3.29705622	6.29890311	1.00000000	1.00000000	1.10000000	1.00925301	176.50000000	147.10000000	187.20000000	198.50000000	176.50000000
2	911.00000000	564.00000000	91.10000000	56.40000000	0.44000000	0.90000000	0.70000000	45.00000000	2.44852812	5.04620245	0.70000000	0.70000000	0.90000000	0.74848206	146.40000000	109.50000000	159.80000000	174.40000000	146.40000000
3	135.00000000	17.00000000	13.50000000	1.70000000	0.67000000	1.20000000	0.50000000	78.65000000	3.21421353	5.56959491	1.10000000	0.70000000	1.20000000	0.92361815	156.30000000	119.10000000	169.90000000	183.80000000	156.30000000
4	1146.50000000	699.00000000	114.70000000	69.90000000	0.63000000	1.00000000	0.80000000	44.68000000	3.01421351	5.67233358	0.90000000	0.90000000	1.00000000	0.89562320	150.60000000	115.10000000	163.40000000	177.20000000	150.60000000
5	912.00000000	889.00000000	91.20000000	88.90000000	0.72000000	0.00000000	0.00000000	0.00000000	3.23847755	3.23847755	1.10000000	0.80000000	0.00000000	0.95413116	152.30000000	119.10000000	164.30000000	177.50000000	152.30000000
6	107.50000000	468.00000000	10.80000000	46.80000000	1.06000000	1.60000000	0.60000000	17.36000000	4.54558436	7.27337247	1.60000000	1.00000000	1.60000000	1.16173746	138.60000000	103.30000000	150.20000000	171.00000000	138.60000000
7	998.50000000	670.00000000	99.90000000	67.00000000	0.96000000	1.50000000	0.90000000	124.95000000	4.03847759	7.65809966	1.40000000	0.90000000	1.50000000	1.10269840	144.30000000	109.60000000	156.50000000	172.60000000	144.30000000
8	887.00000000	115.00000000	88.70000000	11.50000000	0.75000000	1.10000000	1.00000000	56.74000000	3.29705623	6.60108509	1.10000000	0.90000000	1.10000000	0.97720502	169.50000000	138.10000000	180.80000000	193.90000000	169.50000000
9	143.50000000	520.00000000	14.40000000	52.00000000	1.18000000	1.90000000	0.70000000	178.87000000	4.89705625	8.60925894	1.90000000	0.80000000	1.90000000	1.22573352	128.30000000	95.80000000	139.10000000	158.40000000	128.30000000
10	1203.00000000	763.00000000	120.30000000	76.30000000	1.83000000	1.70000000	0.40000000	53.90000000	5.12132032	7.24625891	1.50000000	1.50000000	1.70000000	1.52435631	148.60000000	114.30000000	159.90000000	180.90000000	148.60000000
11	1247.00000000	900.50000000	124.70000000	90.10000000	0.44000000	0.80000000	0.60000000	18.11000000	2.53137083	4.42069843	0.80000000	0.70000000	0.80000000	0.74848206	87.70000000	63.00000000	95.00000000	114.30000000	87.70000000
12	682.50000000	825.00000000	68.20000000	82.50000000	1.36000000	1.80000000	0.90000000	20.20000000	5.20416300	8.71960339	1.90000000	1.10000000	1.80000000	1.31348376	134.10000000	101.20000000	145.50000000	162.20000000	134.20000000
13	1267.50000000	132.00000000	126.80000000	13.20000000	1.16000000	1.90000000	0.80000000	119.36000000	4.72132030	8.83808840	1.90000000	0.90000000	1.90000000	1.21267954	104.70000000	74.70000000	113.30000000	139.00000000	104.70000000
14	943.50000000	535.00000000	94.40000000	53.50000000	1.22000000	1.90000000	0.90000000	143.31000000	5.33553383	9.07926999	1.90000000	0.90000000	1.90000000	1.24377894	158.10000000	119.30000000	171.90000000	188.70000000	158.10000000
15	1066.50000000	665.00000000	106.70000000	66.50000000	2.63000000	3.60000000	1.00000000	43.11000000	9.63259007	15.63067807	3.60000000	1.30000000	3.60000000	1.82818320	148.40000000	109.40000000	161.60000000	182.90000000	148.40000000
16	1008.00000000	768.50000000	100.80000000	76.90000000	4.85000000	3.50000000	1.50000000	86.28000000	9.07695519	16.34283332	3.50000000	1.70000000	3.50000000	2.48499734	187.00000000	148.50000000	200.70000000	217.20000000	187.00000000
17	585.00000000	557.50000000	58.50000000	55.80000000	1.50000000	2.70000000	0.70000000	50.85000000	6.66690466	11.62740491	2.70000000	0.80000000	2.70000000	1.37967138	124.90000000	94.60000000	135.20000000	151.60000000	124.90000000
18	655.50000000	520.50000000	65.50000000	52.10000000	0.33000000	0.70000000	0.70000000	39.22000000	2.21421353	4.39822972	0.60000000	0.60000000	0.70000000	0.64820448	83.00000000	66.30000000	89.80000000	92.40000000	83.00000000

#8
liczenie
obiektów (w)	udział punktów	pole obrazu(mm²)
	20	100.00	12288.0000
nr.	x(pix.):	y(pix.):	x(mm):	y(mm):	powierzchnia:(mm²)	długość:(mm)	szerokość:(mm)	kąt:(°)	obwód:(mm)	obwód C.:(mm)	średnica Fereta H(mm)	średnica Fereta V(mm)	średn. Martina:(mm)	średn. sitowa:(mm)	średnia jaskrawość	R	G	B	Y
1	425.50000000	496.00000000	42.60000000	49.60000000	0.64000000	1.00000000	0.70000000	153.29000000	2.95563487	5.38236898	0.90000000	0.80000000	1.00000000	0.89917023	96.50000000	63.60000000	105.60000000	135.90000000	96.50000000
2	560.00000000	480.50000000	56.00000000	48.10000000	0.55000000	0.90000000	0.70000000	159.29000000	3.00416303	5.04620245	0.80000000	0.80000000	0.90000000	0.83301594	89.20000000	61.50000000	96.30000000	125.40000000	89.20000000
3	493.50000000	410.50000000	49.40000000	41.10000000	1.10000000	1.40000000	1.10000000	179.34000000	4.42842706	7.88228151	1.30000000	1.20000000	1.40000000	1.18345405	95.80000000	63.90000000	104.40000000	135.20000000	95.80000000
4	740.50000000	617.00000000	74.00000000	61.70000000	0.77000000	1.20000000	0.10000000	24.16000000	3.29705623	4.85621764	1.10000000	0.80000000	1.20000000	0.99014870	148.00000000	103.00000000	163.90000000	183.90000000	148.00000000
5	364.50000000	806.00000000	36.50000000	80.60000000	2.33000000	2.40000000	0.90000000	165.94000000	6.32132031	10.91005871	2.30000000	1.30000000	2.40000000	1.72054699	131.70000000	87.80000000	144.90000000	178.60000000	131.70000000
6	1081.50000000	131.50000000	108.20000000	13.20000000	0.53000000	0.80000000	0.90000000	143.39000000	2.77989894	5.34532850	0.80000000	0.70000000	0.80000000	0.82147243	73.70000000	51.80000000	79.10000000	104.00000000	73.70000000
7	731.00000000	15.00000000	73.10000000	1.50000000	1.06000000	1.60000000	0.80000000	13.57000000	4.21421354	7.75075857	1.50000000	0.90000000	1.60000000	1.16173746	111.60000000	74.40000000	121.30000000	159.50000000	111.60000000
8	720.00000000	179.50000000	72.00000000	17.90000000	0.93000000	1.30000000	0.80000000	95.52000000	3.75563487	6.69118043	1.30000000	0.90000000	1.30000000	1.08524033	100.80000000	65.30000000	110.20000000	145.10000000	100.80000000
9	1144.00000000	533.50000000	114.40000000	53.40000000	1.20000000	1.80000000	1.00000000	21.44000000	4.91126980	8.97691424	1.80000000	1.00000000	1.80000000	1.23607745	87.90000000	58.00000000	94.60000000	131.30000000	87.90000000
10	454.00000000	48.00000000	45.40000000	4.80000000	2.54000000	3.00000000	1.10000000	80.70000000	7.70121926	13.58189014	3.10000000	1.10000000	3.00000000	1.79656958	112.80000000	74.90000000	122.60000000	161.70000000	112.80000000
11	293.50000000	335.00000000	29.40000000	33.50000000	1.45000000	2.10000000	0.90000000	81.47000000	5.36984843	9.80569999	2.10000000	1.00000000	2.10000000	1.35640375	94.80000000	63.40000000	102.90000000	135.30000000	94.80000000
12	11.00000000	866.00000000	1.10000000	86.60000000	1.20000000	1.40000000	0.40000000	98.97000000	4.21421355	6.10035750	1.30000000	1.10000000	1.40000000	1.23607745	101.30000000	67.60000000	108.50000000	152.20000000	101.30000000
13	860.00000000	317.00000000	86.00000000	31.70000000	1.11000000	1.60000000	0.80000000	64.92000000	4.32132031	7.75075857	1.60000000	1.00000000	1.60000000	1.18614067	92.10000000	59.80000000	100.20000000	135.10000000	92.10000000
14	545.00000000	751.00000000	54.50000000	75.10000000	1.56000000	2.00000000	1.00000000	136.35000000	5.27695516	9.68844822	2.00000000	1.00000000	2.00000000	1.40934513	135.10000000	92.70000000	148.40000000	178.00000000	135.10000000
15	300.00000000	148.50000000	30.00000000	14.90000000	2.10000000	2.50000000	1.00000000	157.80000000	6.16984844	11.50655623	2.50000000	1.20000000	2.50000000	1.63322896	105.80000000	70.90000000	115.40000000	147.90000000	105.80000000
16	115.00000000	865.50000000	11.50000000	86.60000000	3.22000000	3.10000000	1.40000000	166.36000000	8.04264061	14.64623635	3.00000000	1.40000000	3.10000000	2.02480402	122.50000000	82.10000000	133.80000000	170.90000000	122.60000000
17	587.00000000	190.50000000	58.70000000	19.10000000	8.93000000	9.20000000	1.40000000	101.92000000	21.44091611	37.98793734	9.20000000	1.40000000	9.20000000	3.37100325	109.70000000	72.50000000	119.90000000	155.00000000	109.70000000
18	837.00000000	673.50000000	83.70000000	67.40000000	4.19000000	4.70000000	1.10000000	4.18000000	11.79827548	20.02327651	4.70000000	1.60000000	4.70000000	2.30835602	119.50000000	80.60000000	130.70000000	164.00000000	119.50000000
19	1274.00000000	682.00000000	127.40000000	68.20000000	0.50000000	1.80000000	0.10000000	0.33000000	4.07279218	7.24168763	1.80000000	0.50000000	1.80000000	0.79388511	58.50000000	41.80000000	63.60000000	75.50000000	58.40000000
20	164.00000000	4.50000000	16.40000000	0.50000000	0.77000000	1.90000000	0.30000000	91.80000000	5.14558437	7.86074492	1.90000000	0.70000000	1.90000000	0.99014870	45.30000000	33.90000000	49.40000000	54.10000000	45.30000000

#9
liczenie
obiektów (w)	udział punktów	pole obrazu(mm²)
	13	100.00	12288.0000
nr.	x(pix.):	y(pix.):	x(mm):	y(mm):	powierzchnia:(mm²)	długość:(mm)	szerokość:(mm)	kąt:(°)	obwód:(mm)	obwód C.:(mm)	średnica Fereta H(mm)	średnica Fereta V(mm)	średn. Martina:(mm)	średn. sitowa:(mm)	średnia jaskrawość	R	G	B	Y
1	105.00000000	364.50000000	10.50000000	36.50000000	0.80000000	1.10000000	0.50000000	28.62000000	3.35563488	5.20487381	1.10000000	0.90000000	1.10000000	1.00609415	118.10000000	81.90000000	129.90000000	151.90000000	118.10000000
2	798.00000000	500.50000000	79.80000000	50.10000000	1.26000000	1.80000000	0.60000000	113.41000000	4.66274164	8.01893567	1.80000000	0.90000000	1.80000000	1.26660247	134.80000000	95.20000000	147.40000000	173.70000000	134.80000000
3	112.50000000	605.00000000	11.20000000	60.50000000	0.79000000	1.20000000	0.40000000	28.03000000	3.35563489	5.34595711	1.10000000	0.90000000	1.20000000	0.99974649	133.50000000	93.60000000	147.70000000	165.30000000	133.50000000
4	328.50000000	920.00000000	32.90000000	92.00000000	0.49000000	1.00000000	0.60000000	38.99000000	2.83847761	5.10539977	0.90000000	0.60000000	1.00000000	0.78582516	117.30000000	83.90000000	126.80000000	156.30000000	117.30000000
5	448.50000000	257.00000000	44.90000000	25.70000000	1.86000000	2.50000000	0.90000000	112.75000000	6.35979789	11.28145555	2.50000000	1.00000000	2.50000000	1.53890401	142.00000000	101.90000000	154.70000000	181.70000000	142.00000000
6	986.00000000	407.50000000	98.60000000	40.80000000	0.85000000	1.30000000	0.40000000	99.06000000	3.57989894	5.72199943	1.10000000	1.10000000	1.30000000	1.04031419	131.80000000	95.20000000	144.60000000	162.40000000	131.90000000
7	1007.50000000	237.50000000	100.80000000	23.80000000	0.51000000	1.10000000	0.30000000	24.39000000	2.75563489	4.76528499	1.00000000	0.60000000	1.10000000	0.80186406	149.80000000	107.00000000	164.70000000	185.10000000	149.80000000
8	293.00000000	668.50000000	29.30000000	66.90000000	0.61000000	1.20000000	0.80000000	62.00000000	3.07279217	6.34617584	1.10000000	0.70000000	1.20000000	0.87767302	140.60000000	99.10000000	154.00000000	180.20000000	140.50000000
9	455.50000000	585.00000000	45.60000000	58.50000000	2.19000000	3.00000000	0.70000000	177.12000000	7.20416300	12.77702591	2.90000000	1.00000000	3.00000000	1.66794137	150.30000000	105.80000000	165.00000000	191.10000000	150.30000000
10	789.00000000	126.00000000	78.90000000	12.60000000	1.71000000	2.70000000	0.90000000	83.44000000	6.62842706	12.02840350	2.70000000	0.90000000	2.70000000	1.47554723	109.50000000	76.60000000	119.10000000	146.60000000	109.50000000
11	1165.50000000	765.00000000	116.60000000	76.50000000	1.44000000	1.90000000	0.90000000	12.08000000	5.28700570	9.07926999	1.90000000	1.10000000	1.90000000	1.35170217	91.00000000	63.20000000	98.60000000	124.10000000	90.90000000
12	978.50000000	189.00000000	97.90000000	18.90000000	1.61000000	2.30000000	1.00000000	47.78000000	6.22842705	10.77353731	2.30000000	1.10000000	2.30000000	1.43175266	105.00000000	72.50000000	114.50000000	141.20000000	105.00000000
13	75.00000000	953.50000000	7.50000000	95.40000000	0.30000000	0.90000000	0.20000000	123.14000000	2.44852812	3.81553916	1.00000000	0.40000000	0.90000000	0.61803872	82.00000000	60.30000000	87.30000000	111.20000000	82.00000000

#10
liczenie
obiektów (w)	udział punktów	pole obrazu(mm²)
	16	100.00	12288.0000
nr.	x(pix.):	y(pix.):	x(mm):	y(mm):	powierzchnia:(mm²)	długość:(mm)	szerokość:(mm)	kąt:(°)	obwód:(mm)	obwód C.:(mm)	średnica Fereta H(mm)	średnica Fereta V(mm)	średn. Martina:(mm)	średn. sitowa:(mm)	średnia jaskrawość	R	G	B	Y
1	824.00000000	542.50000000	82.40000000	54.20000000	0.76000000	1.40000000	0.30000000	13.25000000	3.61421354	5.91620038	1.40000000	0.70000000	1.40000000	0.98369815	122.30000000	86.40000000	133.30000000	159.50000000	122.30000000
2	646.50000000	571.50000000	64.70000000	57.20000000	1.13000000	1.90000000	0.60000000	85.62000000	4.94558437	8.39456374	1.80000000	0.90000000	1.90000000	1.19948351	129.70000000	92.70000000	140.90000000	169.60000000	129.70000000
3	641.00000000	266.50000000	64.10000000	26.70000000	0.40000000	0.80000000	0.70000000	49.07000000	2.33137082	4.71762642	0.70000000	0.70000000	0.80000000	0.71364965	129.20000000	97.60000000	140.60000000	152.80000000	129.10000000
4	1150.00000000	811.50000000	115.00000000	81.20000000	0.92000000	1.30000000	0.30000000	93.29000000	3.75563488	5.53079717	1.30000000	0.90000000	1.30000000	1.07935823	103.90000000	73.10000000	112.90000000	138.90000000	103.90000000
5	355.00000000	771.50000000	35.50000000	77.20000000	1.06000000	1.50000000	0.80000000	37.09000000	4.32132030	7.39397902	1.60000000	1.00000000	1.50000000	1.15899427	138.00000000	98.40000000	150.70000000	176.60000000	138.00000000
6	528.50000000	914.00000000	52.90000000	91.40000000	1.12000000	1.60000000	0.90000000	103.93000000	4.34558434	8.00868922	1.60000000	1.00000000	1.60000000	1.19416426	126.50000000	91.50000000	136.90000000	165.10000000	126.60000000
7	779.00000000	123.00000000	77.90000000	12.30000000	0.95000000	1.20000000	0.90000000	137.41000000	3.77989893	6.63104765	1.20000000	1.00000000	1.20000000	1.09980797	138.70000000	102.30000000	151.40000000	169.30000000	138.80000000
8	188.50000000	327.00000000	18.90000000	32.70000000	0.48000000	0.90000000	0.70000000	80.59000000	2.72132030	5.04620245	0.80000000	0.70000000	0.90000000	0.77768167	109.80000000	78.10000000	119.70000000	142.40000000	109.80000000
9	1095.50000000	911.00000000	109.60000000	91.10000000	1.12000000	2.00000000	0.30000000	3.30000000	4.69705623	8.25217572	2.00000000	0.70000000	2.00000000	1.19416426	101.00000000	70.60000000	109.40000000	138.10000000	101.00000000
10	276.00000000	326.00000000	27.60000000	32.60000000	0.86000000	1.40000000	0.80000000	64.84000000	3.63847758	7.04063244	1.30000000	0.90000000	1.40000000	1.04336945	136.50000000	97.30000000	149.70000000	171.30000000	136.50000000
11	641.00000000	726.50000000	64.10000000	72.70000000	1.62000000	2.40000000	0.80000000	59.11000000	5.73553385	10.69191422	2.40000000	0.90000000	2.40000000	1.43397415	128.70000000	93.00000000	139.40000000	167.30000000	128.70000000
12	1253.00000000	850.50000000	125.30000000	85.10000000	1.08000000	1.90000000	0.10000000	8.64000000	4.43847756	7.63999195	1.90000000	0.70000000	1.90000000	1.16992842	83.80000000	57.50000000	90.60000000	117.80000000	83.80000000
13	1177.00000000	781.50000000	117.70000000	78.20000000	1.31000000	2.00000000	0.90000000	133.78000000	5.05269111	9.44137847	1.90000000	0.80000000	2.00000000	1.28902196	131.50000000	94.00000000	143.20000000	169.10000000	131.50000000
14	974.00000000	433.00000000	97.40000000	43.30000000	1.06000000	1.90000000	0.70000000	47.33000000	4.80416300	8.60925894	1.90000000	0.90000000	1.90000000	1.15899427	133.20000000	94.20000000	145.60000000	172.10000000	133.30000000
15	744.50000000	481.50000000	74.50000000	48.20000000	2.34000000	1.90000000	1.60000000	90.81000000	6.19411249	11.01577953	1.90000000	1.60000000	1.90000000	1.72608822	123.90000000	88.90000000	133.90000000	164.00000000	123.90000000
16	304.00000000	333.50000000	30.40000000	33.40000000	1.49000000	1.90000000	0.40000000	92.54000000	4.89705621	8.01703907	1.90000000	0.90000000	1.90000000	1.37736231	164.40000000	126.40000000	178.00000000	193.90000000	164.40000000
